STUDYID,USUBJID,SUBJID,SITEID,COUNTRY,TRTSDT,TRTEDT,TRT01PN,TRT01P,TRT01AN,TRT01A,ARMCD,ARM,ACTARMCD,ACTARM,AGE,AGEU,AGEGR1,SEX,RACE,ETHNIC,SAFFL,ITTFL,EFFFL,COMPLFL,PARAM,PARAMCD,AVAL,CNSR,EVNTDESC,CNSDTDSC,STARTDT,ADT,ADY,SRCDOM,SRCVAR,DISCONT,DCSREAS,DOSAGE,DOSGRP,DOSDUR
ABCD-123,ABCD-123-001,001,01,FRA,2023-03-02,2023-03-26,0,Placebo,0,Placebo,ARM0,Placebo,ARM0,Placebo,76.5,YEARS,>=65,F,AMERICAN INDIAN OR ALASKA NATIVE,NOT HISPANIC OR LATINO,Y,Y,Y,N,Time to Death,TTDEATH,119,0,DEATH,,2023-03-02,2023-06-28,119,ADSL,TTDEATH,Y,PROTOCOL VIOLATION,0,Placebo,25
ABCD-123,ABCD-123-001,001,01,FRA,2023-03-02,2023-03-26,0,Placebo,0,Placebo,ARM0,Placebo,ARM0,Placebo,76.5,YEARS,>=65,F,AMERICAN INDIAN OR ALASKA NATIVE,NOT HISPANIC OR LATINO,Y,Y,Y,N,Time to Disease Progression,TTPROGR,311,1,,NO PROGRESSION,2023-03-02,2024-01-06,311,ADSL,TTPROGR,Y,PROGRESSIVE DISEASE,0,Placebo,25
ABCD-123,ABCD-123-001,001,01,FRA,2023-03-02,2023-03-26,0,Placebo,0,Placebo,ARM0,Placebo,ARM0,Placebo,76.5,YEARS,>=65,F,AMERICAN INDIAN OR ALASKA NATIVE,NOT HISPANIC OR LATINO,Y,Y,Y,N,Time to Response,TTRESP,137,1,,NO RESPONSE,2023-03-02,2023-07-16,137,ADSL,TTRESP,Y,PROTOCOL VIOLATION,0,Placebo,25
ABCD-123,ABCD-123-002,002,02,DEU,2023-06-13,2024-04-22,2,High Dose,2,High Dose,ARM2,High Dose,ARM2,High Dose,76.6,YEARS,>=65,M,BLACK OR AFRICAN AMERICAN,NOT HISPANIC OR LATINO,Y,Y,Y,Y,Time to Death,TTDEATH,322,1,,LAST KNOWN ALIVE,2023-06-13,2024-04-29,322,ADSL,TTDEATH,Y,WITHDRAWAL BY SUBJECT,100,High Dose,315
ABCD-123,ABCD-123-002,002,02,DEU,2023-06-13,2024-04-22,2,High Dose,2,High Dose,ARM2,High Dose,ARM2,High Dose,76.6,YEARS,>=65,M,BLACK OR AFRICAN AMERICAN,NOT HISPANIC OR LATINO,Y,Y,Y,Y,Time to Disease Progression,TTPROGR,362,0,DISEASE PROGRESSION,,2023-06-13,2024-06-08,362,ADSL,TTPROGR,N,,100,High Dose,315
ABCD-123,ABCD-123-002,002,02,DEU,2023-06-13,2024-04-22,2,High Dose,2,High Dose,ARM2,High Dose,ARM2,High Dose,76.6,YEARS,>=65,M,BLACK OR AFRICAN AMERICAN,NOT HISPANIC OR LATINO,Y,Y,Y,Y,Time to Response,TTRESP,254,1,,NO RESPONSE,2023-06-13,2024-02-21,254,ADSL,TTRESP,N,,100,High Dose,315
ABCD-123,ABCD-123-003,003,02,GBR,2023-05-10,2023-05-13,2,High Dose,2,High Dose,ARM2,High Dose,ARM2,High Dose,60.7,YEARS,<65,M,BLACK OR AFRICAN AMERICAN,NOT HISPANIC OR LATINO,Y,Y,Y,Y,Time to Death,TTDEATH,288,1,,LAST KNOWN ALIVE,2023-05-10,2024-02-21,288,ADSL,TTDEATH,N,,100,High Dose,4
ABCD-123,ABCD-123-003,003,02,GBR,2023-05-10,2023-05-13,2,High Dose,2,High Dose,ARM2,High Dose,ARM2,High Dose,60.7,YEARS,<65,M,BLACK OR AFRICAN AMERICAN,NOT HISPANIC OR LATINO,Y,Y,Y,Y,Time to Disease Progression,TTPROGR,200,1,,NO PROGRESSION,2023-05-10,2023-11-25,200,ADSL,TTPROGR,N,,100,High Dose,4
ABCD-123,ABCD-123-003,003,02,GBR,2023-05-10,2023-05-13,2,High Dose,2,High Dose,ARM2,High Dose,ARM2,High Dose,60.7,YEARS,<65,M,BLACK OR AFRICAN AMERICAN,NOT HISPANIC OR LATINO,Y,Y,Y,Y,Time to Response,TTRESP,33,0,RESPONSE,,2023-05-10,2023-06-11,33,ADSL,TTRESP,N,,100,High Dose,4
ABCD-123,ABCD-123-004,004,01,DEU,2023-02-18,2023-09-27,0,Placebo,0,Placebo,ARM0,Placebo,ARM0,Placebo,53,YEARS,<65,M,NATIVE HAWAIIAN OR OTHER PACIFIC ISLANDER,NOT HISPANIC OR LATINO,Y,Y,Y,Y,Time to Death,TTDEATH,250,1,,LAST KNOWN ALIVE,2023-02-18,2023-10-25,250,ADSL,TTDEATH,Y,,0,Placebo,222
ABCD-123,ABCD-123-004,004,01,DEU,2023-02-18,2023-09-27,0,Placebo,0,Placebo,ARM0,Placebo,ARM0,Placebo,53,YEARS,<65,M,NATIVE HAWAIIAN OR OTHER PACIFIC ISLANDER,NOT HISPANIC OR LATINO,Y,Y,Y,Y,Time to Disease Progression,TTPROGR,132,1,,NO PROGRESSION,2023-02-18,2023-06-29,132,ADSL,TTPROGR,N,,0,Placebo,222
ABCD-123,ABCD-123-004,004,01,DEU,2023-02-18,2023-09-27,0,Placebo,0,Placebo,ARM0,Placebo,ARM0,Placebo,53,YEARS,<65,M,NATIVE HAWAIIAN OR OTHER PACIFIC ISLANDER,NOT HISPANIC OR LATINO,Y,Y,Y,Y,Time to Response,TTRESP,353,1,,NO RESPONSE,2023-02-18,2024-02-05,353,ADSL,TTRESP,Y,,0,Placebo,222
ABCD-123,ABCD-123-005,005,04,USA,2023-02-15,2023-09-11,2,High Dose,2,High Dose,ARM2,High Dose,ARM2,High Dose,61.8,YEARS,<65,F,ASIAN,HISPANIC OR LATINO,Y,Y,Y,Y,Time to Death,TTDEATH,90,1,,LAST KNOWN ALIVE,2023-02-15,2023-05-15,90,ADSL,TTDEATH,N,,100,High Dose,209
ABCD-123,ABCD-123-005,005,04,USA,2023-02-15,2023-09-11,2,High Dose,2,High Dose,ARM2,High Dose,ARM2,High Dose,61.8,YEARS,<65,F,ASIAN,HISPANIC OR LATINO,Y,Y,Y,Y,Time to Disease Progression,TTPROGR,122,0,DISEASE PROGRESSION,,2023-02-15,2023-06-16,122,ADSL,TTPROGR,N,,100,High Dose,209
ABCD-123,ABCD-123-005,005,04,USA,2023-02-15,2023-09-11,2,High Dose,2,High Dose,ARM2,High Dose,ARM2,High Dose,61.8,YEARS,<65,F,ASIAN,HISPANIC OR LATINO,Y,Y,Y,Y,Time to Response,TTRESP,154,0,RESPONSE,,2023-02-15,2023-07-18,154,ADSL,TTRESP,N,,100,High Dose,209
ABCD-123,ABCD-123-006,006,09,CAN,2023-03-10,2024-01-03,0,Placebo,0,Placebo,ARM0,Placebo,ARM0,Placebo,73.2,YEARS,>=65,F,WHITE,HISPANIC OR LATINO,Y,Y,Y,N,Time to Death,TTDEATH,72,1,,LAST KNOWN ALIVE,2023-03-10,2023-05-20,72,ADSL,TTDEATH,N,,0,Placebo,300
ABCD-123,ABCD-123-006,006,09,CAN,2023-03-10,2024-01-03,0,Placebo,0,Placebo,ARM0,Placebo,ARM0,Placebo,73.2,YEARS,>=65,F,WHITE,HISPANIC OR LATINO,Y,Y,Y,N,Time to Disease Progression,TTPROGR,265,0,DISEASE PROGRESSION,,2023-03-10,2023-11-29,265,ADSL,TTPROGR,N,,0,Placebo,300
ABCD-123,ABCD-123-006,006,09,CAN,2023-03-10,2024-01-03,0,Placebo,0,Placebo,ARM0,Placebo,ARM0,Placebo,73.2,YEARS,>=65,F,WHITE,HISPANIC OR LATINO,Y,Y,Y,N,Time to Response,TTRESP,53,0,RESPONSE,,2023-03-10,2023-05-01,53,ADSL,TTRESP,N,,0,Placebo,300
ABCD-123,ABCD-123-007,007,01,GBR,2023-02-14,2024-01-30,1,Low Dose,1,Low Dose,ARM1,Low Dose,ARM1,Low Dose,44.3,YEARS,<65,F,WHITE,NOT HISPANIC OR LATINO,Y,Y,Y,Y,Time to Death,TTDEATH,292,0,DEATH,,2023-02-14,2023-12-02,292,ADSL,TTDEATH,Y,PROTOCOL VIOLATION,50,Low Dose,351
ABCD-123,ABCD-123-007,007,01,GBR,2023-02-14,2024-01-30,1,Low Dose,1,Low Dose,ARM1,Low Dose,ARM1,Low Dose,44.3,YEARS,<65,F,WHITE,NOT HISPANIC OR LATINO,Y,Y,Y,Y,Time to Disease Progression,TTPROGR,285,0,DISEASE PROGRESSION,,2023-02-14,2023-11-25,285,ADSL,TTPROGR,N,,50,Low Dose,351
ABCD-123,ABCD-123-007,007,01,GBR,2023-02-14,2024-01-30,1,Low Dose,1,Low Dose,ARM1,Low Dose,ARM1,Low Dose,44.3,YEARS,<65,F,WHITE,NOT HISPANIC OR LATINO,Y,Y,Y,Y,Time to Response,TTRESP,216,1,,NO RESPONSE,2023-02-14,2023-09-17,216,ADSL,TTRESP,N,,50,Low Dose,351
ABCD-123,ABCD-123-008,008,10,USA,2023-01-28,2023-07-09,0,Placebo,0,Placebo,ARM0,Placebo,ARM0,Placebo,72.2,YEARS,>=65,F,BLACK OR AFRICAN AMERICAN,HISPANIC OR LATINO,Y,Y,Y,Y,Time to Death,TTDEATH,224,1,,LAST KNOWN ALIVE,2023-01-28,2023-09-08,224,ADSL,TTDEATH,N,,0,Placebo,163
ABCD-123,ABCD-123-008,008,10,USA,2023-01-28,2023-07-09,0,Placebo,0,Placebo,ARM0,Placebo,ARM0,Placebo,72.2,YEARS,>=65,F,BLACK OR AFRICAN AMERICAN,HISPANIC OR LATINO,Y,Y,Y,Y,Time to Disease Progression,TTPROGR,199,1,,NO PROGRESSION,2023-01-28,2023-08-14,199,ADSL,TTPROGR,N,,0,Placebo,163
ABCD-123,ABCD-123-008,008,10,USA,2023-01-28,2023-07-09,0,Placebo,0,Placebo,ARM0,Placebo,ARM0,Placebo,72.2,YEARS,>=65,F,BLACK OR AFRICAN AMERICAN,HISPANIC OR LATINO,Y,Y,Y,Y,Time to Response,TTRESP,65,1,,NO RESPONSE,2023-01-28,2023-04-02,65,ADSL,TTRESP,Y,ADVERSE EVENT,0,Placebo,163
ABCD-123,ABCD-123-009,009,01,FRA,2023-05-21,2024-03-03,2,High Dose,2,High Dose,ARM2,High Dose,ARM2,High Dose,50.7,YEARS,<65,F,AMERICAN INDIAN OR ALASKA NATIVE,NOT HISPANIC OR LATINO,Y,Y,Y,Y,Time to Death,TTDEATH,73,0,DEATH,,2023-05-21,2023-08-01,73,ADSL,TTDEATH,Y,WITHDRAWAL BY SUBJECT,100,High Dose,288
ABCD-123,ABCD-123-009,009,01,FRA,2023-05-21,2024-03-03,2,High Dose,2,High Dose,ARM2,High Dose,ARM2,High Dose,50.7,YEARS,<65,F,AMERICAN INDIAN OR ALASKA NATIVE,NOT HISPANIC OR LATINO,Y,Y,Y,Y,Time to Disease Progression,TTPROGR,351,1,,NO PROGRESSION,2023-05-21,2024-05-05,351,ADSL,TTPROGR,N,,100,High Dose,288
ABCD-123,ABCD-123-009,009,01,FRA,2023-05-21,2024-03-03,2,High Dose,2,High Dose,ARM2,High Dose,ARM2,High Dose,50.7,YEARS,<65,F,AMERICAN INDIAN OR ALASKA NATIVE,NOT HISPANIC OR LATINO,Y,Y,Y,Y,Time to Response,TTRESP,58,1,,NO RESPONSE,2023-05-21,2023-07-17,58,ADSL,TTRESP,N,,100,High Dose,288
ABCD-123,ABCD-123-010,010,04,DEU,2023-05-18,2023-07-20,2,High Dose,2,High Dose,ARM2,High Dose,ARM2,High Dose,60,YEARS,<65,M,WHITE,NOT HISPANIC OR LATINO,Y,Y,Y,Y,Time to Death,TTDEATH,91,1,,LAST KNOWN ALIVE,2023-05-18,2023-08-16,91,ADSL,TTDEATH,N,,100,High Dose,64
ABCD-123,ABCD-123-010,010,04,DEU,2023-05-18,2023-07-20,2,High Dose,2,High Dose,ARM2,High Dose,ARM2,High Dose,60,YEARS,<65,M,WHITE,NOT HISPANIC OR LATINO,Y,Y,Y,Y,Time to Disease Progression,TTPROGR,42,0,DISEASE PROGRESSION,,2023-05-18,2023-06-28,42,ADSL,TTPROGR,N,,100,High Dose,64
ABCD-123,ABCD-123-010,010,04,DEU,2023-05-18,2023-07-20,2,High Dose,2,High Dose,ARM2,High Dose,ARM2,High Dose,60,YEARS,<65,M,WHITE,NOT HISPANIC OR LATINO,Y,Y,Y,Y,Time to Response,TTRESP,164,1,,NO RESPONSE,2023-05-18,2023-10-28,164,ADSL,TTRESP,N,,100,High Dose,64
ABCD-123,ABCD-123-011,011,03,FRA,2023-03-11,2023-09-25,0,Placebo,0,Placebo,ARM0,Placebo,ARM0,Placebo,57.7,YEARS,<65,M,ASIAN,NOT HISPANIC OR LATINO,Y,Y,Y,Y,Time to Death,TTDEATH,40,1,,LAST KNOWN ALIVE,2023-03-11,2023-04-19,40,ADSL,TTDEATH,N,,0,Placebo,199
ABCD-123,ABCD-123-011,011,03,FRA,2023-03-11,2023-09-25,0,Placebo,0,Placebo,ARM0,Placebo,ARM0,Placebo,57.7,YEARS,<65,M,ASIAN,NOT HISPANIC OR LATINO,Y,Y,Y,Y,Time to Disease Progression,TTPROGR,215,1,,NO PROGRESSION,2023-03-11,2023-10-11,215,ADSL,TTPROGR,N,,0,Placebo,199
ABCD-123,ABCD-123-011,011,03,FRA,2023-03-11,2023-09-25,0,Placebo,0,Placebo,ARM0,Placebo,ARM0,Placebo,57.7,YEARS,<65,M,ASIAN,NOT HISPANIC OR LATINO,Y,Y,Y,Y,Time to Response,TTRESP,31,1,,NO RESPONSE,2023-03-11,2023-04-10,31,ADSL,TTRESP,Y,,0,Placebo,199
ABCD-123,ABCD-123-012,012,09,DEU,2023-06-13,2023-12-12,0,Placebo,0,Placebo,ARM0,Placebo,ARM0,Placebo,57.2,YEARS,<65,F,WHITE,HISPANIC OR LATINO,Y,Y,Y,Y,Time to Death,TTDEATH,85,1,,LAST KNOWN ALIVE,2023-06-13,2023-09-05,85,ADSL,TTDEATH,Y,WITHDRAWAL BY SUBJECT,0,Placebo,183
ABCD-123,ABCD-123-012,012,09,DEU,2023-06-13,2023-12-12,0,Placebo,0,Placebo,ARM0,Placebo,ARM0,Placebo,57.2,YEARS,<65,F,WHITE,HISPANIC OR LATINO,Y,Y,Y,Y,Time to Disease Progression,TTPROGR,57,0,DISEASE PROGRESSION,,2023-06-13,2023-08-08,57,ADSL,TTPROGR,N,,0,Placebo,183
ABCD-123,ABCD-123-012,012,09,DEU,2023-06-13,2023-12-12,0,Placebo,0,Placebo,ARM0,Placebo,ARM0,Placebo,57.2,YEARS,<65,F,WHITE,HISPANIC OR LATINO,Y,Y,Y,Y,Time to Response,TTRESP,181,1,,NO RESPONSE,2023-06-13,2023-12-10,181,ADSL,TTRESP,Y,ADVERSE EVENT,0,Placebo,183
ABCD-123,ABCD-123-013,013,01,GBR,2023-03-26,2023-07-17,1,Low Dose,1,Low Dose,ARM1,Low Dose,ARM1,Low Dose,55,YEARS,<65,F,BLACK OR AFRICAN AMERICAN,NOT HISPANIC OR LATINO,Y,Y,Y,Y,Time to Death,TTDEATH,124,1,,LAST KNOWN ALIVE,2023-03-26,2023-07-27,124,ADSL,TTDEATH,N,,50,Low Dose,114
ABCD-123,ABCD-123-013,013,01,GBR,2023-03-26,2023-07-17,1,Low Dose,1,Low Dose,ARM1,Low Dose,ARM1,Low Dose,55,YEARS,<65,F,BLACK OR AFRICAN AMERICAN,NOT HISPANIC OR LATINO,Y,Y,Y,Y,Time to Disease Progression,TTPROGR,128,0,DISEASE PROGRESSION,,2023-03-26,2023-07-31,128,ADSL,TTPROGR,Y,ADVERSE EVENT,50,Low Dose,114
ABCD-123,ABCD-123-013,013,01,GBR,2023-03-26,2023-07-17,1,Low Dose,1,Low Dose,ARM1,Low Dose,ARM1,Low Dose,55,YEARS,<65,F,BLACK OR AFRICAN AMERICAN,NOT HISPANIC OR LATINO,Y,Y,Y,Y,Time to Response,TTRESP,248,1,,NO RESPONSE,2023-03-26,2023-11-28,248,ADSL,TTRESP,N,,50,Low Dose,114
ABCD-123,ABCD-123-014,014,10,USA,2023-02-19,2023-09-21,2,High Dose,2,High Dose,ARM2,High Dose,ARM2,High Dose,82.6,YEARS,>=65,F,ASIAN,HISPANIC OR LATINO,Y,Y,Y,N,Time to Death,TTDEATH,345,1,,LAST KNOWN ALIVE,2023-02-19,2024-01-29,345,ADSL,TTDEATH,N,,100,High Dose,215
ABCD-123,ABCD-123-014,014,10,USA,2023-02-19,2023-09-21,2,High Dose,2,High Dose,ARM2,High Dose,ARM2,High Dose,82.6,YEARS,>=65,F,ASIAN,HISPANIC OR LATINO,Y,Y,Y,N,Time to Disease Progression,TTPROGR,201,0,DISEASE PROGRESSION,,2023-02-19,2023-09-07,201,ADSL,TTPROGR,Y,PROTOCOL VIOLATION,100,High Dose,215
ABCD-123,ABCD-123-014,014,10,USA,2023-02-19,2023-09-21,2,High Dose,2,High Dose,ARM2,High Dose,ARM2,High Dose,82.6,YEARS,>=65,F,ASIAN,HISPANIC OR LATINO,Y,Y,Y,N,Time to Response,TTRESP,75,1,,NO RESPONSE,2023-02-19,2023-05-04,75,ADSL,TTRESP,Y,WITHDRAWAL BY SUBJECT,100,High Dose,215
ABCD-123,ABCD-123-015,015,08,CAN,2023-04-13,2023-05-20,2,High Dose,2,High Dose,ARM2,High Dose,ARM2,High Dose,65,YEARS,>=65,F,AMERICAN INDIAN OR ALASKA NATIVE,HISPANIC OR LATINO,Y,Y,Y,N,Time to Death,TTDEATH,193,1,,LAST KNOWN ALIVE,2023-04-13,2023-10-22,193,ADSL,TTDEATH,N,,100,High Dose,38
ABCD-123,ABCD-123-015,015,08,CAN,2023-04-13,2023-05-20,2,High Dose,2,High Dose,ARM2,High Dose,ARM2,High Dose,65,YEARS,>=65,F,AMERICAN INDIAN OR ALASKA NATIVE,HISPANIC OR LATINO,Y,Y,Y,N,Time to Disease Progression,TTPROGR,60,0,DISEASE PROGRESSION,,2023-04-13,2023-06-11,60,ADSL,TTPROGR,N,,100,High Dose,38
ABCD-123,ABCD-123-015,015,08,CAN,2023-04-13,2023-05-20,2,High Dose,2,High Dose,ARM2,High Dose,ARM2,High Dose,65,YEARS,>=65,F,AMERICAN INDIAN OR ALASKA NATIVE,HISPANIC OR LATINO,Y,Y,Y,N,Time to Response,TTRESP,337,1,,NO RESPONSE,2023-04-13,2024-03-14,337,ADSL,TTRESP,Y,PROTOCOL VIOLATION,100,High Dose,38
ABCD-123,ABCD-123-016,016,05,DEU,2023-02-19,2023-12-17,2,High Dose,2,High Dose,ARM2,High Dose,ARM2,High Dose,41.2,YEARS,<65,M,ASIAN,NOT HISPANIC OR LATINO,Y,Y,Y,Y,Time to Death,TTDEATH,202,1,,LAST KNOWN ALIVE,2023-02-19,2023-09-08,202,ADSL,TTDEATH,Y,,100,High Dose,302
ABCD-123,ABCD-123-016,016,05,DEU,2023-02-19,2023-12-17,2,High Dose,2,High Dose,ARM2,High Dose,ARM2,High Dose,41.2,YEARS,<65,M,ASIAN,NOT HISPANIC OR LATINO,Y,Y,Y,Y,Time to Disease Progression,TTPROGR,275,1,,NO PROGRESSION,2023-02-19,2023-11-20,275,ADSL,TTPROGR,N,,100,High Dose,302
ABCD-123,ABCD-123-016,016,05,DEU,2023-02-19,2023-12-17,2,High Dose,2,High Dose,ARM2,High Dose,ARM2,High Dose,41.2,YEARS,<65,M,ASIAN,NOT HISPANIC OR LATINO,Y,Y,Y,Y,Time to Response,TTRESP,169,1,,NO RESPONSE,2023-02-19,2023-08-06,169,ADSL,TTRESP,N,,100,High Dose,302
ABCD-123,ABCD-123-017,017,06,CAN,2023-06-01,2023-12-17,2,High Dose,2,High Dose,ARM2,High Dose,ARM2,High Dose,59.1,YEARS,<65,M,NATIVE HAWAIIAN OR OTHER PACIFIC ISLANDER,NOT HISPANIC OR LATINO,Y,Y,Y,Y,Time to Death,TTDEATH,112,1,,LAST KNOWN ALIVE,2023-06-01,2023-09-20,112,ADSL,TTDEATH,N,,100,High Dose,200
ABCD-123,ABCD-123-017,017,06,CAN,2023-06-01,2023-12-17,2,High Dose,2,High Dose,ARM2,High Dose,ARM2,High Dose,59.1,YEARS,<65,M,NATIVE HAWAIIAN OR OTHER PACIFIC ISLANDER,NOT HISPANIC OR LATINO,Y,Y,Y,Y,Time to Disease Progression,TTPROGR,216,0,DISEASE PROGRESSION,,2023-06-01,2024-01-02,216,ADSL,TTPROGR,N,,100,High Dose,200
ABCD-123,ABCD-123-017,017,06,CAN,2023-06-01,2023-12-17,2,High Dose,2,High Dose,ARM2,High Dose,ARM2,High Dose,59.1,YEARS,<65,M,NATIVE HAWAIIAN OR OTHER PACIFIC ISLANDER,NOT HISPANIC OR LATINO,Y,Y,Y,Y,Time to Response,TTRESP,363,1,,NO RESPONSE,2023-06-01,2024-05-28,363,ADSL,TTRESP,N,,100,High Dose,200
ABCD-123,ABCD-123-018,018,07,GBR,2023-07-07,2024-04-05,1,Low Dose,1,Low Dose,ARM1,Low Dose,ARM1,Low Dose,39,YEARS,<65,F,BLACK OR AFRICAN AMERICAN,NOT HISPANIC OR LATINO,Y,Y,Y,Y,Time to Death,TTDEATH,360,1,,LAST KNOWN ALIVE,2023-07-07,2024-06-30,360,ADSL,TTDEATH,Y,,50,Low Dose,274
ABCD-123,ABCD-123-018,018,07,GBR,2023-07-07,2024-04-05,1,Low Dose,1,Low Dose,ARM1,Low Dose,ARM1,Low Dose,39,YEARS,<65,F,BLACK OR AFRICAN AMERICAN,NOT HISPANIC OR LATINO,Y,Y,Y,Y,Time to Disease Progression,TTPROGR,193,1,,NO PROGRESSION,2023-07-07,2024-01-15,193,ADSL,TTPROGR,Y,WITHDRAWAL BY SUBJECT,50,Low Dose,274
ABCD-123,ABCD-123-018,018,07,GBR,2023-07-07,2024-04-05,1,Low Dose,1,Low Dose,ARM1,Low Dose,ARM1,Low Dose,39,YEARS,<65,F,BLACK OR AFRICAN AMERICAN,NOT HISPANIC OR LATINO,Y,Y,Y,Y,Time to Response,TTRESP,352,0,RESPONSE,,2023-07-07,2024-06-22,352,ADSL,TTRESP,N,,50,Low Dose,274
ABCD-123,ABCD-123-019,019,10,FRA,2023-03-25,2023-11-16,2,High Dose,2,High Dose,ARM2,High Dose,ARM2,High Dose,47.4,YEARS,<65,F,AMERICAN INDIAN OR ALASKA NATIVE,NOT HISPANIC OR LATINO,Y,Y,Y,Y,Time to Death,TTDEATH,60,0,DEATH,,2023-03-25,2023-05-23,60,ADSL,TTDEATH,N,,100,High Dose,237
ABCD-123,ABCD-123-019,019,10,FRA,2023-03-25,2023-11-16,2,High Dose,2,High Dose,ARM2,High Dose,ARM2,High Dose,47.4,YEARS,<65,F,AMERICAN INDIAN OR ALASKA NATIVE,NOT HISPANIC OR LATINO,Y,Y,Y,Y,Time to Disease Progression,TTPROGR,257,1,,NO PROGRESSION,2023-03-25,2023-12-06,257,ADSL,TTPROGR,N,,100,High Dose,237
ABCD-123,ABCD-123-019,019,10,FRA,2023-03-25,2023-11-16,2,High Dose,2,High Dose,ARM2,High Dose,ARM2,High Dose,47.4,YEARS,<65,F,AMERICAN INDIAN OR ALASKA NATIVE,NOT HISPANIC OR LATINO,Y,Y,Y,Y,Time to Response,TTRESP,212,1,,NO RESPONSE,2023-03-25,2023-10-22,212,ADSL,TTRESP,N,,100,High Dose,237
ABCD-123,ABCD-123-020,020,06,FRA,2023-02-05,2023-10-20,1,Low Dose,1,Low Dose,ARM1,Low Dose,ARM1,Low Dose,73.4,YEARS,>=65,F,WHITE,HISPANIC OR LATINO,Y,Y,Y,Y,Time to Death,TTDEATH,162,0,DEATH,,2023-02-05,2023-07-16,162,ADSL,TTDEATH,N,,50,Low Dose,258
ABCD-123,ABCD-123-020,020,06,FRA,2023-02-05,2023-10-20,1,Low Dose,1,Low Dose,ARM1,Low Dose,ARM1,Low Dose,73.4,YEARS,>=65,F,WHITE,HISPANIC OR LATINO,Y,Y,Y,Y,Time to Disease Progression,TTPROGR,67,0,DISEASE PROGRESSION,,2023-02-05,2023-04-12,67,ADSL,TTPROGR,Y,,50,Low Dose,258
ABCD-123,ABCD-123-020,020,06,FRA,2023-02-05,2023-10-20,1,Low Dose,1,Low Dose,ARM1,Low Dose,ARM1,Low Dose,73.4,YEARS,>=65,F,WHITE,HISPANIC OR LATINO,Y,Y,Y,Y,Time to Response,TTRESP,353,1,,NO RESPONSE,2023-02-05,2024-01-23,353,ADSL,TTRESP,N,,50,Low Dose,258
ABCD-123,ABCD-123-021,021,04,CAN,2023-07-07,2023-07-10,2,High Dose,2,High Dose,ARM2,High Dose,ARM2,High Dose,35.2,YEARS,<65,M,WHITE,NOT HISPANIC OR LATINO,Y,Y,N,Y,Time to Death,TTDEATH,221,0,DEATH,,2023-07-07,2024-02-12,221,ADSL,TTDEATH,N,,100,High Dose,4
ABCD-123,ABCD-123-021,021,04,CAN,2023-07-07,2023-07-10,2,High Dose,2,High Dose,ARM2,High Dose,ARM2,High Dose,35.2,YEARS,<65,M,WHITE,NOT HISPANIC OR LATINO,Y,Y,N,Y,Time to Disease Progression,TTPROGR,269,1,,NO PROGRESSION,2023-07-07,2024-03-31,269,ADSL,TTPROGR,N,,100,High Dose,4
ABCD-123,ABCD-123-021,021,04,CAN,2023-07-07,2023-07-10,2,High Dose,2,High Dose,ARM2,High Dose,ARM2,High Dose,35.2,YEARS,<65,M,WHITE,NOT HISPANIC OR LATINO,Y,Y,N,Y,Time to Response,TTRESP,185,1,,NO RESPONSE,2023-07-07,2024-01-07,185,ADSL,TTRESP,N,,100,High Dose,4
ABCD-123,ABCD-123-022,022,04,GBR,2023-05-01,2023-12-02,0,Placebo,0,Placebo,ARM0,Placebo,ARM0,Placebo,45.3,YEARS,<65,M,BLACK OR AFRICAN AMERICAN,NOT HISPANIC OR LATINO,Y,Y,Y,Y,Time to Death,TTDEATH,87,1,,LAST KNOWN ALIVE,2023-05-01,2023-07-26,87,ADSL,TTDEATH,N,,0,Placebo,216
ABCD-123,ABCD-123-022,022,04,GBR,2023-05-01,2023-12-02,0,Placebo,0,Placebo,ARM0,Placebo,ARM0,Placebo,45.3,YEARS,<65,M,BLACK OR AFRICAN AMERICAN,NOT HISPANIC OR LATINO,Y,Y,Y,Y,Time to Disease Progression,TTPROGR,94,1,,NO PROGRESSION,2023-05-01,2023-08-02,94,ADSL,TTPROGR,N,,0,Placebo,216
ABCD-123,ABCD-123-022,022,04,GBR,2023-05-01,2023-12-02,0,Placebo,0,Placebo,ARM0,Placebo,ARM0,Placebo,45.3,YEARS,<65,M,BLACK OR AFRICAN AMERICAN,NOT HISPANIC OR LATINO,Y,Y,Y,Y,Time to Response,TTRESP,43,1,,NO RESPONSE,2023-05-01,2023-06-12,43,ADSL,TTRESP,N,,0,Placebo,216
ABCD-123,ABCD-123-023,023,06,FRA,2023-03-29,2023-07-30,2,High Dose,2,High Dose,ARM2,High Dose,ARM2,High Dose,59,YEARS,<65,M,WHITE,HISPANIC OR LATINO,Y,Y,Y,N,Time to Death,TTDEATH,365,1,,LAST KNOWN ALIVE,2023-03-29,2024-03-27,365,ADSL,TTDEATH,N,,100,High Dose,124
ABCD-123,ABCD-123-023,023,06,FRA,2023-03-29,2023-07-30,2,High Dose,2,High Dose,ARM2,High Dose,ARM2,High Dose,59,YEARS,<65,M,WHITE,HISPANIC OR LATINO,Y,Y,Y,N,Time to Disease Progression,TTPROGR,114,1,,NO PROGRESSION,2023-03-29,2023-07-20,114,ADSL,TTPROGR,Y,WITHDRAWAL BY SUBJECT,100,High Dose,124
ABCD-123,ABCD-123-023,023,06,FRA,2023-03-29,2023-07-30,2,High Dose,2,High Dose,ARM2,High Dose,ARM2,High Dose,59,YEARS,<65,M,WHITE,HISPANIC OR LATINO,Y,Y,Y,N,Time to Response,TTRESP,119,1,,NO RESPONSE,2023-03-29,2023-07-25,119,ADSL,TTRESP,Y,ADVERSE EVENT,100,High Dose,124
ABCD-123,ABCD-123-024,024,08,DEU,2023-05-29,2023-10-23,2,High Dose,2,High Dose,ARM2,High Dose,ARM2,High Dose,81.1,YEARS,>=65,F,NATIVE HAWAIIAN OR OTHER PACIFIC ISLANDER,HISPANIC OR LATINO,Y,Y,Y,Y,Time to Death,TTDEATH,331,1,,LAST KNOWN ALIVE,2023-05-29,2024-04-23,331,ADSL,TTDEATH,Y,,100,High Dose,148
ABCD-123,ABCD-123-024,024,08,DEU,2023-05-29,2023-10-23,2,High Dose,2,High Dose,ARM2,High Dose,ARM2,High Dose,81.1,YEARS,>=65,F,NATIVE HAWAIIAN OR OTHER PACIFIC ISLANDER,HISPANIC OR LATINO,Y,Y,Y,Y,Time to Disease Progression,TTPROGR,172,1,,NO PROGRESSION,2023-05-29,2023-11-16,172,ADSL,TTPROGR,Y,,100,High Dose,148
ABCD-123,ABCD-123-024,024,08,DEU,2023-05-29,2023-10-23,2,High Dose,2,High Dose,ARM2,High Dose,ARM2,High Dose,81.1,YEARS,>=65,F,NATIVE HAWAIIAN OR OTHER PACIFIC ISLANDER,HISPANIC OR LATINO,Y,Y,Y,Y,Time to Response,TTRESP,70,1,,NO RESPONSE,2023-05-29,2023-08-06,70,ADSL,TTRESP,Y,WITHDRAWAL BY SUBJECT,100,High Dose,148
ABCD-123,ABCD-123-025,025,07,DEU,2023-05-11,2023-09-22,0,Placebo,0,Placebo,ARM0,Placebo,ARM0,Placebo,61,YEARS,<65,M,BLACK OR AFRICAN AMERICAN,HISPANIC OR LATINO,N,Y,N,Y,Time to Death,TTDEATH,309,1,,LAST KNOWN ALIVE,2023-05-11,2024-03-14,309,ADSL,TTDEATH,N,,0,Placebo,135
ABCD-123,ABCD-123-025,025,07,DEU,2023-05-11,2023-09-22,0,Placebo,0,Placebo,ARM0,Placebo,ARM0,Placebo,61,YEARS,<65,M,BLACK OR AFRICAN AMERICAN,HISPANIC OR LATINO,N,Y,N,Y,Time to Disease Progression,TTPROGR,266,1,,NO PROGRESSION,2023-05-11,2024-01-31,266,ADSL,TTPROGR,N,,0,Placebo,135
ABCD-123,ABCD-123-025,025,07,DEU,2023-05-11,2023-09-22,0,Placebo,0,Placebo,ARM0,Placebo,ARM0,Placebo,61,YEARS,<65,M,BLACK OR AFRICAN AMERICAN,HISPANIC OR LATINO,N,Y,N,Y,Time to Response,TTRESP,201,0,RESPONSE,,2023-05-11,2023-11-27,201,ADSL,TTRESP,N,,0,Placebo,135
ABCD-123,ABCD-123-026,026,05,USA,2023-02-18,2023-07-24,2,High Dose,2,High Dose,ARM2,High Dose,ARM2,High Dose,56.2,YEARS,<65,M,BLACK OR AFRICAN AMERICAN,NOT HISPANIC OR LATINO,Y,Y,Y,Y,Time to Death,TTDEATH,174,1,,LAST KNOWN ALIVE,2023-02-18,2023-08-10,174,ADSL,TTDEATH,N,,100,High Dose,157
ABCD-123,ABCD-123-026,026,05,USA,2023-02-18,2023-07-24,2,High Dose,2,High Dose,ARM2,High Dose,ARM2,High Dose,56.2,YEARS,<65,M,BLACK OR AFRICAN AMERICAN,NOT HISPANIC OR LATINO,Y,Y,Y,Y,Time to Disease Progression,TTPROGR,251,1,,NO PROGRESSION,2023-02-18,2023-10-26,251,ADSL,TTPROGR,Y,ADVERSE EVENT,100,High Dose,157
ABCD-123,ABCD-123-026,026,05,USA,2023-02-18,2023-07-24,2,High Dose,2,High Dose,ARM2,High Dose,ARM2,High Dose,56.2,YEARS,<65,M,BLACK OR AFRICAN AMERICAN,NOT HISPANIC OR LATINO,Y,Y,Y,Y,Time to Response,TTRESP,130,0,RESPONSE,,2023-02-18,2023-06-27,130,ADSL,TTRESP,N,,100,High Dose,157
ABCD-123,ABCD-123-027,027,08,CAN,2023-03-30,2023-09-07,2,High Dose,2,High Dose,ARM2,High Dose,ARM2,High Dose,77.1,YEARS,>=65,M,WHITE,NOT HISPANIC OR LATINO,Y,Y,Y,N,Time to Death,TTDEATH,301,0,DEATH,,2023-03-30,2024-01-24,301,ADSL,TTDEATH,N,,100,High Dose,162
ABCD-123,ABCD-123-027,027,08,CAN,2023-03-30,2023-09-07,2,High Dose,2,High Dose,ARM2,High Dose,ARM2,High Dose,77.1,YEARS,>=65,M,WHITE,NOT HISPANIC OR LATINO,Y,Y,Y,N,Time to Disease Progression,TTPROGR,117,1,,NO PROGRESSION,2023-03-30,2023-07-24,117,ADSL,TTPROGR,Y,WITHDRAWAL BY SUBJECT,100,High Dose,162
ABCD-123,ABCD-123-027,027,08,CAN,2023-03-30,2023-09-07,2,High Dose,2,High Dose,ARM2,High Dose,ARM2,High Dose,77.1,YEARS,>=65,M,WHITE,NOT HISPANIC OR LATINO,Y,Y,Y,N,Time to Response,TTRESP,251,1,,NO RESPONSE,2023-03-30,2023-12-05,251,ADSL,TTRESP,Y,PROGRESSIVE DISEASE,100,High Dose,162
ABCD-123,ABCD-123-028,028,04,GBR,2023-05-27,2023-06-27,0,Placebo,0,Placebo,ARM0,Placebo,ARM0,Placebo,75.8,YEARS,>=65,M,NATIVE HAWAIIAN OR OTHER PACIFIC ISLANDER,HISPANIC OR LATINO,Y,Y,Y,N,Time to Death,TTDEATH,50,1,,LAST KNOWN ALIVE,2023-05-27,2023-07-15,50,ADSL,TTDEATH,N,,0,Placebo,32
ABCD-123,ABCD-123-028,028,04,GBR,2023-05-27,2023-06-27,0,Placebo,0,Placebo,ARM0,Placebo,ARM0,Placebo,75.8,YEARS,>=65,M,NATIVE HAWAIIAN OR OTHER PACIFIC ISLANDER,HISPANIC OR LATINO,Y,Y,Y,N,Time to Disease Progression,TTPROGR,255,0,DISEASE PROGRESSION,,2023-05-27,2024-02-05,255,ADSL,TTPROGR,Y,PROGRESSIVE DISEASE,0,Placebo,32
ABCD-123,ABCD-123-028,028,04,GBR,2023-05-27,2023-06-27,0,Placebo,0,Placebo,ARM0,Placebo,ARM0,Placebo,75.8,YEARS,>=65,M,NATIVE HAWAIIAN OR OTHER PACIFIC ISLANDER,HISPANIC OR LATINO,Y,Y,Y,N,Time to Response,TTRESP,292,1,,NO RESPONSE,2023-05-27,2024-03-13,292,ADSL,TTRESP,Y,WITHDRAWAL BY SUBJECT,0,Placebo,32
ABCD-123,ABCD-123-029,029,10,FRA,2023-05-23,2023-05-30,2,High Dose,2,High Dose,ARM2,High Dose,ARM2,High Dose,47.2,YEARS,<65,F,NATIVE HAWAIIAN OR OTHER PACIFIC ISLANDER,NOT HISPANIC OR LATINO,Y,Y,Y,Y,Time to Death,TTDEATH,41,0,DEATH,,2023-05-23,2023-07-02,41,ADSL,TTDEATH,N,,100,High Dose,8
ABCD-123,ABCD-123-029,029,10,FRA,2023-05-23,2023-05-30,2,High Dose,2,High Dose,ARM2,High Dose,ARM2,High Dose,47.2,YEARS,<65,F,NATIVE HAWAIIAN OR OTHER PACIFIC ISLANDER,NOT HISPANIC OR LATINO,Y,Y,Y,Y,Time to Disease Progression,TTPROGR,115,0,DISEASE PROGRESSION,,2023-05-23,2023-09-14,115,ADSL,TTPROGR,Y,,100,High Dose,8
ABCD-123,ABCD-123-029,029,10,FRA,2023-05-23,2023-05-30,2,High Dose,2,High Dose,ARM2,High Dose,ARM2,High Dose,47.2,YEARS,<65,F,NATIVE HAWAIIAN OR OTHER PACIFIC ISLANDER,NOT HISPANIC OR LATINO,Y,Y,Y,Y,Time to Response,TTRESP,284,1,,NO RESPONSE,2023-05-23,2024-03-01,284,ADSL,TTRESP,N,,100,High Dose,8
ABCD-123,ABCD-123-030,030,01,DEU,2023-06-26,2023-11-21,1,Low Dose,1,Low Dose,ARM1,Low Dose,ARM1,Low Dose,80.9,YEARS,>=65,F,WHITE,NOT HISPANIC OR LATINO,Y,Y,Y,Y,Time to Death,TTDEATH,38,1,,LAST KNOWN ALIVE,2023-06-26,2023-08-02,38,ADSL,TTDEATH,Y,PROTOCOL VIOLATION,50,Low Dose,149
ABCD-123,ABCD-123-030,030,01,DEU,2023-06-26,2023-11-21,1,Low Dose,1,Low Dose,ARM1,Low Dose,ARM1,Low Dose,80.9,YEARS,>=65,F,WHITE,NOT HISPANIC OR LATINO,Y,Y,Y,Y,Time to Disease Progression,TTPROGR,111,0,DISEASE PROGRESSION,,2023-06-26,2023-10-14,111,ADSL,TTPROGR,N,,50,Low Dose,149
ABCD-123,ABCD-123-030,030,01,DEU,2023-06-26,2023-11-21,1,Low Dose,1,Low Dose,ARM1,Low Dose,ARM1,Low Dose,80.9,YEARS,>=65,F,WHITE,NOT HISPANIC OR LATINO,Y,Y,Y,Y,Time to Response,TTRESP,276,1,,NO RESPONSE,2023-06-26,2024-03-27,276,ADSL,TTRESP,N,,50,Low Dose,149
ABCD-123,ABCD-123-031,031,08,CAN,2023-07-11,2023-11-03,1,Low Dose,1,Low Dose,ARM1,Low Dose,ARM1,Low Dose,61.6,YEARS,<65,F,AMERICAN INDIAN OR ALASKA NATIVE,HISPANIC OR LATINO,Y,Y,Y,Y,Time to Death,TTDEATH,60,1,,LAST KNOWN ALIVE,2023-07-11,2023-09-08,60,ADSL,TTDEATH,N,,50,Low Dose,116
ABCD-123,ABCD-123-031,031,08,CAN,2023-07-11,2023-11-03,1,Low Dose,1,Low Dose,ARM1,Low Dose,ARM1,Low Dose,61.6,YEARS,<65,F,AMERICAN INDIAN OR ALASKA NATIVE,HISPANIC OR LATINO,Y,Y,Y,Y,Time to Disease Progression,TTPROGR,176,1,,NO PROGRESSION,2023-07-11,2024-01-02,176,ADSL,TTPROGR,N,,50,Low Dose,116
ABCD-123,ABCD-123-031,031,08,CAN,2023-07-11,2023-11-03,1,Low Dose,1,Low Dose,ARM1,Low Dose,ARM1,Low Dose,61.6,YEARS,<65,F,AMERICAN INDIAN OR ALASKA NATIVE,HISPANIC OR LATINO,Y,Y,Y,Y,Time to Response,TTRESP,208,1,,NO RESPONSE,2023-07-11,2024-02-03,208,ADSL,TTRESP,N,,50,Low Dose,116
ABCD-123,ABCD-123-032,032,03,FRA,2023-06-25,2024-03-29,1,Low Dose,1,Low Dose,ARM1,Low Dose,ARM1,Low Dose,35.6,YEARS,<65,M,BLACK OR AFRICAN AMERICAN,NOT HISPANIC OR LATINO,Y,Y,Y,Y,Time to Death,TTDEATH,245,1,,LAST KNOWN ALIVE,2023-06-25,2024-02-24,245,ADSL,TTDEATH,Y,PROTOCOL VIOLATION,50,Low Dose,279
ABCD-123,ABCD-123-032,032,03,FRA,2023-06-25,2024-03-29,1,Low Dose,1,Low Dose,ARM1,Low Dose,ARM1,Low Dose,35.6,YEARS,<65,M,BLACK OR AFRICAN AMERICAN,NOT HISPANIC OR LATINO,Y,Y,Y,Y,Time to Disease Progression,TTPROGR,162,0,DISEASE PROGRESSION,,2023-06-25,2023-12-03,162,ADSL,TTPROGR,N,,50,Low Dose,279
ABCD-123,ABCD-123-032,032,03,FRA,2023-06-25,2024-03-29,1,Low Dose,1,Low Dose,ARM1,Low Dose,ARM1,Low Dose,35.6,YEARS,<65,M,BLACK OR AFRICAN AMERICAN,NOT HISPANIC OR LATINO,Y,Y,Y,Y,Time to Response,TTRESP,37,1,,NO RESPONSE,2023-06-25,2023-07-31,37,ADSL,TTRESP,N,,50,Low Dose,279
ABCD-123,ABCD-123-033,033,03,FRA,2023-07-10,2024-05-29,2,High Dose,2,High Dose,ARM2,High Dose,ARM2,High Dose,61.1,YEARS,<65,M,AMERICAN INDIAN OR ALASKA NATIVE,HISPANIC OR LATINO,Y,Y,Y,Y,Time to Death,TTDEATH,145,0,DEATH,,2023-07-10,2023-12-01,145,ADSL,TTDEATH,N,,100,High Dose,325
ABCD-123,ABCD-123-033,033,03,FRA,2023-07-10,2024-05-29,2,High Dose,2,High Dose,ARM2,High Dose,ARM2,High Dose,61.1,YEARS,<65,M,AMERICAN INDIAN OR ALASKA NATIVE,HISPANIC OR LATINO,Y,Y,Y,Y,Time to Disease Progression,TTPROGR,351,1,,NO PROGRESSION,2023-07-10,2024-06-24,351,ADSL,TTPROGR,N,,100,High Dose,325
ABCD-123,ABCD-123-033,033,03,FRA,2023-07-10,2024-05-29,2,High Dose,2,High Dose,ARM2,High Dose,ARM2,High Dose,61.1,YEARS,<65,M,AMERICAN INDIAN OR ALASKA NATIVE,HISPANIC OR LATINO,Y,Y,Y,Y,Time to Response,TTRESP,183,0,RESPONSE,,2023-07-10,2024-01-08,183,ADSL,TTRESP,N,,100,High Dose,325
ABCD-123,ABCD-123-034,034,10,USA,2023-02-24,2024-02-07,0,Placebo,0,Placebo,ARM0,Placebo,ARM0,Placebo,36,YEARS,<65,M,BLACK OR AFRICAN AMERICAN,HISPANIC OR LATINO,Y,Y,Y,N,Time to Death,TTDEATH,140,1,,LAST KNOWN ALIVE,2023-02-24,2023-07-13,140,ADSL,TTDEATH,N,,0,Placebo,349
ABCD-123,ABCD-123-034,034,10,USA,2023-02-24,2024-02-07,0,Placebo,0,Placebo,ARM0,Placebo,ARM0,Placebo,36,YEARS,<65,M,BLACK OR AFRICAN AMERICAN,HISPANIC OR LATINO,Y,Y,Y,N,Time to Disease Progression,TTPROGR,270,1,,NO PROGRESSION,2023-02-24,2023-11-20,270,ADSL,TTPROGR,Y,PROTOCOL VIOLATION,0,Placebo,349
ABCD-123,ABCD-123-034,034,10,USA,2023-02-24,2024-02-07,0,Placebo,0,Placebo,ARM0,Placebo,ARM0,Placebo,36,YEARS,<65,M,BLACK OR AFRICAN AMERICAN,HISPANIC OR LATINO,Y,Y,Y,N,Time to Response,TTRESP,273,1,,NO RESPONSE,2023-02-24,2023-11-23,273,ADSL,TTRESP,N,,0,Placebo,349
ABCD-123,ABCD-123-035,035,09,GBR,2023-05-19,2024-02-27,0,Placebo,0,Placebo,ARM0,Placebo,ARM0,Placebo,35.6,YEARS,<65,F,WHITE,HISPANIC OR LATINO,Y,Y,Y,Y,Time to Death,TTDEATH,48,0,DEATH,,2023-05-19,2023-07-05,48,ADSL,TTDEATH,Y,WITHDRAWAL BY SUBJECT,0,Placebo,285
ABCD-123,ABCD-123-035,035,09,GBR,2023-05-19,2024-02-27,0,Placebo,0,Placebo,ARM0,Placebo,ARM0,Placebo,35.6,YEARS,<65,F,WHITE,HISPANIC OR LATINO,Y,Y,Y,Y,Time to Disease Progression,TTPROGR,226,1,,NO PROGRESSION,2023-05-19,2023-12-30,226,ADSL,TTPROGR,Y,PROGRESSIVE DISEASE,0,Placebo,285
ABCD-123,ABCD-123-035,035,09,GBR,2023-05-19,2024-02-27,0,Placebo,0,Placebo,ARM0,Placebo,ARM0,Placebo,35.6,YEARS,<65,F,WHITE,HISPANIC OR LATINO,Y,Y,Y,Y,Time to Response,TTRESP,86,1,,NO RESPONSE,2023-05-19,2023-08-12,86,ADSL,TTRESP,N,,0,Placebo,285
ABCD-123,ABCD-123-036,036,03,USA,2023-02-03,2023-06-20,1,Low Dose,1,Low Dose,ARM1,Low Dose,ARM1,Low Dose,82,YEARS,>=65,F,AMERICAN INDIAN OR ALASKA NATIVE,HISPANIC OR LATINO,Y,Y,Y,N,Time to Death,TTDEATH,182,1,,LAST KNOWN ALIVE,2023-02-03,2023-08-03,182,ADSL,TTDEATH,N,,50,Low Dose,138
ABCD-123,ABCD-123-036,036,03,USA,2023-02-03,2023-06-20,1,Low Dose,1,Low Dose,ARM1,Low Dose,ARM1,Low Dose,82,YEARS,>=65,F,AMERICAN INDIAN OR ALASKA NATIVE,HISPANIC OR LATINO,Y,Y,Y,N,Time to Disease Progression,TTPROGR,164,0,DISEASE PROGRESSION,,2023-02-03,2023-07-16,164,ADSL,TTPROGR,N,,50,Low Dose,138
ABCD-123,ABCD-123-036,036,03,USA,2023-02-03,2023-06-20,1,Low Dose,1,Low Dose,ARM1,Low Dose,ARM1,Low Dose,82,YEARS,>=65,F,AMERICAN INDIAN OR ALASKA NATIVE,HISPANIC OR LATINO,Y,Y,Y,N,Time to Response,TTRESP,238,1,,NO RESPONSE,2023-02-03,2023-09-28,238,ADSL,TTRESP,N,,50,Low Dose,138
ABCD-123,ABCD-123-037,037,03,USA,2023-02-17,2023-10-13,2,High Dose,2,High Dose,ARM2,High Dose,ARM2,High Dose,67.7,YEARS,>=65,M,ASIAN,NOT HISPANIC OR LATINO,Y,Y,Y,N,Time to Death,TTDEATH,31,0,DEATH,,2023-02-17,2023-03-19,31,ADSL,TTDEATH,N,,100,High Dose,239
ABCD-123,ABCD-123-037,037,03,USA,2023-02-17,2023-10-13,2,High Dose,2,High Dose,ARM2,High Dose,ARM2,High Dose,67.7,YEARS,>=65,M,ASIAN,NOT HISPANIC OR LATINO,Y,Y,Y,N,Time to Disease Progression,TTPROGR,325,1,,NO PROGRESSION,2023-02-17,2024-01-07,325,ADSL,TTPROGR,N,,100,High Dose,239
ABCD-123,ABCD-123-037,037,03,USA,2023-02-17,2023-10-13,2,High Dose,2,High Dose,ARM2,High Dose,ARM2,High Dose,67.7,YEARS,>=65,M,ASIAN,NOT HISPANIC OR LATINO,Y,Y,Y,N,Time to Response,TTRESP,224,1,,NO RESPONSE,2023-02-17,2023-09-28,224,ADSL,TTRESP,N,,100,High Dose,239
ABCD-123,ABCD-123-038,038,07,CAN,2023-02-18,2023-11-04,2,High Dose,2,High Dose,ARM2,High Dose,ARM2,High Dose,36.5,YEARS,<65,M,NATIVE HAWAIIAN OR OTHER PACIFIC ISLANDER,HISPANIC OR LATINO,Y,Y,Y,N,Time to Death,TTDEATH,331,0,DEATH,,2023-02-18,2024-01-14,331,ADSL,TTDEATH,N,,100,High Dose,260
ABCD-123,ABCD-123-038,038,07,CAN,2023-02-18,2023-11-04,2,High Dose,2,High Dose,ARM2,High Dose,ARM2,High Dose,36.5,YEARS,<65,M,NATIVE HAWAIIAN OR OTHER PACIFIC ISLANDER,HISPANIC OR LATINO,Y,Y,Y,N,Time to Disease Progression,TTPROGR,233,1,,NO PROGRESSION,2023-02-18,2023-10-08,233,ADSL,TTPROGR,N,,100,High Dose,260
ABCD-123,ABCD-123-038,038,07,CAN,2023-02-18,2023-11-04,2,High Dose,2,High Dose,ARM2,High Dose,ARM2,High Dose,36.5,YEARS,<65,M,NATIVE HAWAIIAN OR OTHER PACIFIC ISLANDER,HISPANIC OR LATINO,Y,Y,Y,N,Time to Response,TTRESP,45,0,RESPONSE,,2023-02-18,2023-04-03,45,ADSL,TTRESP,Y,PROTOCOL VIOLATION,100,High Dose,260
ABCD-123,ABCD-123-039,039,01,CAN,2023-05-29,2023-06-23,1,Low Dose,1,Low Dose,ARM1,Low Dose,ARM1,Low Dose,63.2,YEARS,<65,F,ASIAN,NOT HISPANIC OR LATINO,Y,Y,Y,N,Time to Death,TTDEATH,285,1,,LAST KNOWN ALIVE,2023-05-29,2024-03-08,285,ADSL,TTDEATH,N,,50,Low Dose,26
ABCD-123,ABCD-123-039,039,01,CAN,2023-05-29,2023-06-23,1,Low Dose,1,Low Dose,ARM1,Low Dose,ARM1,Low Dose,63.2,YEARS,<65,F,ASIAN,NOT HISPANIC OR LATINO,Y,Y,Y,N,Time to Disease Progression,TTPROGR,278,1,,NO PROGRESSION,2023-05-29,2024-03-01,278,ADSL,TTPROGR,N,,50,Low Dose,26
ABCD-123,ABCD-123-039,039,01,CAN,2023-05-29,2023-06-23,1,Low Dose,1,Low Dose,ARM1,Low Dose,ARM1,Low Dose,63.2,YEARS,<65,F,ASIAN,NOT HISPANIC OR LATINO,Y,Y,Y,N,Time to Response,TTRESP,173,0,RESPONSE,,2023-05-29,2023-11-17,173,ADSL,TTRESP,Y,,50,Low Dose,26
ABCD-123,ABCD-123-040,040,01,USA,2023-03-22,2023-09-02,1,Low Dose,1,Low Dose,ARM1,Low Dose,ARM1,Low Dose,66.8,YEARS,>=65,M,ASIAN,NOT HISPANIC OR LATINO,Y,Y,Y,Y,Time to Death,TTDEATH,69,1,,LAST KNOWN ALIVE,2023-03-22,2023-05-29,69,ADSL,TTDEATH,N,,50,Low Dose,165
ABCD-123,ABCD-123-040,040,01,USA,2023-03-22,2023-09-02,1,Low Dose,1,Low Dose,ARM1,Low Dose,ARM1,Low Dose,66.8,YEARS,>=65,M,ASIAN,NOT HISPANIC OR LATINO,Y,Y,Y,Y,Time to Disease Progression,TTPROGR,262,0,DISEASE PROGRESSION,,2023-03-22,2023-12-08,262,ADSL,TTPROGR,N,,50,Low Dose,165
ABCD-123,ABCD-123-040,040,01,USA,2023-03-22,2023-09-02,1,Low Dose,1,Low Dose,ARM1,Low Dose,ARM1,Low Dose,66.8,YEARS,>=65,M,ASIAN,NOT HISPANIC OR LATINO,Y,Y,Y,Y,Time to Response,TTRESP,313,1,,NO RESPONSE,2023-03-22,2024-01-28,313,ADSL,TTRESP,Y,PROTOCOL VIOLATION,50,Low Dose,165
ABCD-123,ABCD-123-041,041,09,GBR,2023-04-03,2024-01-31,2,High Dose,2,High Dose,ARM2,High Dose,ARM2,High Dose,37.1,YEARS,<65,M,ASIAN,HISPANIC OR LATINO,Y,Y,Y,Y,Time to Death,TTDEATH,121,0,DEATH,,2023-04-03,2023-08-01,121,ADSL,TTDEATH,Y,PROGRESSIVE DISEASE,100,High Dose,304
ABCD-123,ABCD-123-041,041,09,GBR,2023-04-03,2024-01-31,2,High Dose,2,High Dose,ARM2,High Dose,ARM2,High Dose,37.1,YEARS,<65,M,ASIAN,HISPANIC OR LATINO,Y,Y,Y,Y,Time to Disease Progression,TTPROGR,179,0,DISEASE PROGRESSION,,2023-04-03,2023-09-28,179,ADSL,TTPROGR,N,,100,High Dose,304
ABCD-123,ABCD-123-041,041,09,GBR,2023-04-03,2024-01-31,2,High Dose,2,High Dose,ARM2,High Dose,ARM2,High Dose,37.1,YEARS,<65,M,ASIAN,HISPANIC OR LATINO,Y,Y,Y,Y,Time to Response,TTRESP,206,0,RESPONSE,,2023-04-03,2023-10-25,206,ADSL,TTRESP,N,,100,High Dose,304
ABCD-123,ABCD-123-042,042,04,CAN,2023-03-16,2024-02-26,1,Low Dose,1,Low Dose,ARM1,Low Dose,ARM1,Low Dose,80.8,YEARS,>=65,M,BLACK OR AFRICAN AMERICAN,NOT HISPANIC OR LATINO,Y,Y,Y,Y,Time to Death,TTDEATH,104,1,,LAST KNOWN ALIVE,2023-03-16,2023-06-27,104,ADSL,TTDEATH,N,,50,Low Dose,348
ABCD-123,ABCD-123-042,042,04,CAN,2023-03-16,2024-02-26,1,Low Dose,1,Low Dose,ARM1,Low Dose,ARM1,Low Dose,80.8,YEARS,>=65,M,BLACK OR AFRICAN AMERICAN,NOT HISPANIC OR LATINO,Y,Y,Y,Y,Time to Disease Progression,TTPROGR,181,0,DISEASE PROGRESSION,,2023-03-16,2023-09-12,181,ADSL,TTPROGR,N,,50,Low Dose,348
ABCD-123,ABCD-123-042,042,04,CAN,2023-03-16,2024-02-26,1,Low Dose,1,Low Dose,ARM1,Low Dose,ARM1,Low Dose,80.8,YEARS,>=65,M,BLACK OR AFRICAN AMERICAN,NOT HISPANIC OR LATINO,Y,Y,Y,Y,Time to Response,TTRESP,292,1,,NO RESPONSE,2023-03-16,2024-01-01,292,ADSL,TTRESP,N,,50,Low Dose,348
ABCD-123,ABCD-123-043,043,10,FRA,2023-04-30,2023-10-19,1,Low Dose,1,Low Dose,ARM1,Low Dose,ARM1,Low Dose,76.7,YEARS,>=65,F,ASIAN,HISPANIC OR LATINO,Y,Y,Y,Y,Time to Death,TTDEATH,162,1,,LAST KNOWN ALIVE,2023-04-30,2023-10-08,162,ADSL,TTDEATH,N,,50,Low Dose,173
ABCD-123,ABCD-123-043,043,10,FRA,2023-04-30,2023-10-19,1,Low Dose,1,Low Dose,ARM1,Low Dose,ARM1,Low Dose,76.7,YEARS,>=65,F,ASIAN,HISPANIC OR LATINO,Y,Y,Y,Y,Time to Disease Progression,TTPROGR,49,1,,NO PROGRESSION,2023-04-30,2023-06-17,49,ADSL,TTPROGR,N,,50,Low Dose,173
ABCD-123,ABCD-123-043,043,10,FRA,2023-04-30,2023-10-19,1,Low Dose,1,Low Dose,ARM1,Low Dose,ARM1,Low Dose,76.7,YEARS,>=65,F,ASIAN,HISPANIC OR LATINO,Y,Y,Y,Y,Time to Response,TTRESP,93,1,,NO RESPONSE,2023-04-30,2023-07-31,93,ADSL,TTRESP,Y,WITHDRAWAL BY SUBJECT,50,Low Dose,173
ABCD-123,ABCD-123-044,044,05,GBR,2023-02-22,2023-09-18,0,Placebo,0,Placebo,ARM0,Placebo,ARM0,Placebo,51.4,YEARS,<65,M,WHITE,NOT HISPANIC OR LATINO,N,Y,Y,Y,Time to Death,TTDEATH,319,0,DEATH,,2023-02-22,2024-01-06,319,ADSL,TTDEATH,N,,0,Placebo,209
ABCD-123,ABCD-123-044,044,05,GBR,2023-02-22,2023-09-18,0,Placebo,0,Placebo,ARM0,Placebo,ARM0,Placebo,51.4,YEARS,<65,M,WHITE,NOT HISPANIC OR LATINO,N,Y,Y,Y,Time to Disease Progression,TTPROGR,257,1,,NO PROGRESSION,2023-02-22,2023-11-05,257,ADSL,TTPROGR,N,,0,Placebo,209
ABCD-123,ABCD-123-044,044,05,GBR,2023-02-22,2023-09-18,0,Placebo,0,Placebo,ARM0,Placebo,ARM0,Placebo,51.4,YEARS,<65,M,WHITE,NOT HISPANIC OR LATINO,N,Y,Y,Y,Time to Response,TTRESP,106,1,,NO RESPONSE,2023-02-22,2023-06-07,106,ADSL,TTRESP,N,,0,Placebo,209
ABCD-123,ABCD-123-045,045,07,CAN,2023-05-22,2024-04-09,0,Placebo,0,Placebo,ARM0,Placebo,ARM0,Placebo,77.6,YEARS,>=65,F,ASIAN,NOT HISPANIC OR LATINO,Y,Y,N,Y,Time to Death,TTDEATH,344,0,DEATH,,2023-05-22,2024-04-29,344,ADSL,TTDEATH,N,,0,Placebo,324
ABCD-123,ABCD-123-045,045,07,CAN,2023-05-22,2024-04-09,0,Placebo,0,Placebo,ARM0,Placebo,ARM0,Placebo,77.6,YEARS,>=65,F,ASIAN,NOT HISPANIC OR LATINO,Y,Y,N,Y,Time to Disease Progression,TTPROGR,239,1,,NO PROGRESSION,2023-05-22,2024-01-15,239,ADSL,TTPROGR,Y,WITHDRAWAL BY SUBJECT,0,Placebo,324
ABCD-123,ABCD-123-045,045,07,CAN,2023-05-22,2024-04-09,0,Placebo,0,Placebo,ARM0,Placebo,ARM0,Placebo,77.6,YEARS,>=65,F,ASIAN,NOT HISPANIC OR LATINO,Y,Y,N,Y,Time to Response,TTRESP,274,0,RESPONSE,,2023-05-22,2024-02-19,274,ADSL,TTRESP,Y,PROGRESSIVE DISEASE,0,Placebo,324
ABCD-123,ABCD-123-046,046,02,CAN,2023-04-24,2023-07-31,1,Low Dose,1,Low Dose,ARM1,Low Dose,ARM1,Low Dose,80.9,YEARS,>=65,F,WHITE,HISPANIC OR LATINO,Y,Y,N,N,Time to Death,TTDEATH,284,1,,LAST KNOWN ALIVE,2023-04-24,2024-02-01,284,ADSL,TTDEATH,N,,50,Low Dose,99
ABCD-123,ABCD-123-046,046,02,CAN,2023-04-24,2023-07-31,1,Low Dose,1,Low Dose,ARM1,Low Dose,ARM1,Low Dose,80.9,YEARS,>=65,F,WHITE,HISPANIC OR LATINO,Y,Y,N,N,Time to Disease Progression,TTPROGR,267,0,DISEASE PROGRESSION,,2023-04-24,2024-01-15,267,ADSL,TTPROGR,N,,50,Low Dose,99
ABCD-123,ABCD-123-046,046,02,CAN,2023-04-24,2023-07-31,1,Low Dose,1,Low Dose,ARM1,Low Dose,ARM1,Low Dose,80.9,YEARS,>=65,F,WHITE,HISPANIC OR LATINO,Y,Y,N,N,Time to Response,TTRESP,195,1,,NO RESPONSE,2023-04-24,2023-11-04,195,ADSL,TTRESP,Y,PROTOCOL VIOLATION,50,Low Dose,99
ABCD-123,ABCD-123-047,047,06,FRA,2023-07-11,2024-04-02,2,High Dose,2,High Dose,ARM2,High Dose,ARM2,High Dose,36.4,YEARS,<65,M,AMERICAN INDIAN OR ALASKA NATIVE,NOT HISPANIC OR LATINO,Y,Y,Y,Y,Time to Death,TTDEATH,107,0,DEATH,,2023-07-11,2023-10-25,107,ADSL,TTDEATH,N,,100,High Dose,267
ABCD-123,ABCD-123-047,047,06,FRA,2023-07-11,2024-04-02,2,High Dose,2,High Dose,ARM2,High Dose,ARM2,High Dose,36.4,YEARS,<65,M,AMERICAN INDIAN OR ALASKA NATIVE,NOT HISPANIC OR LATINO,Y,Y,Y,Y,Time to Disease Progression,TTPROGR,323,0,DISEASE PROGRESSION,,2023-07-11,2024-05-28,323,ADSL,TTPROGR,Y,PROTOCOL VIOLATION,100,High Dose,267
ABCD-123,ABCD-123-047,047,06,FRA,2023-07-11,2024-04-02,2,High Dose,2,High Dose,ARM2,High Dose,ARM2,High Dose,36.4,YEARS,<65,M,AMERICAN INDIAN OR ALASKA NATIVE,NOT HISPANIC OR LATINO,Y,Y,Y,Y,Time to Response,TTRESP,193,0,RESPONSE,,2023-07-11,2024-01-19,193,ADSL,TTRESP,N,,100,High Dose,267
ABCD-123,ABCD-123-048,048,03,GBR,2023-01-26,2023-10-15,1,Low Dose,1,Low Dose,ARM1,Low Dose,ARM1,Low Dose,70.9,YEARS,>=65,M,BLACK OR AFRICAN AMERICAN,NOT HISPANIC OR LATINO,Y,Y,Y,Y,Time to Death,TTDEATH,89,0,DEATH,,2023-01-26,2023-04-24,89,ADSL,TTDEATH,N,,50,Low Dose,263
ABCD-123,ABCD-123-048,048,03,GBR,2023-01-26,2023-10-15,1,Low Dose,1,Low Dose,ARM1,Low Dose,ARM1,Low Dose,70.9,YEARS,>=65,M,BLACK OR AFRICAN AMERICAN,NOT HISPANIC OR LATINO,Y,Y,Y,Y,Time to Disease Progression,TTPROGR,354,1,,NO PROGRESSION,2023-01-26,2024-01-14,354,ADSL,TTPROGR,N,,50,Low Dose,263
ABCD-123,ABCD-123-048,048,03,GBR,2023-01-26,2023-10-15,1,Low Dose,1,Low Dose,ARM1,Low Dose,ARM1,Low Dose,70.9,YEARS,>=65,M,BLACK OR AFRICAN AMERICAN,NOT HISPANIC OR LATINO,Y,Y,Y,Y,Time to Response,TTRESP,154,1,,NO RESPONSE,2023-01-26,2023-06-28,154,ADSL,TTRESP,N,,50,Low Dose,263
ABCD-123,ABCD-123-049,049,05,GBR,2023-01-28,2023-05-06,0,Placebo,0,Placebo,ARM0,Placebo,ARM0,Placebo,66.6,YEARS,>=65,M,NATIVE HAWAIIAN OR OTHER PACIFIC ISLANDER,HISPANIC OR LATINO,Y,Y,Y,N,Time to Death,TTDEATH,293,1,,LAST KNOWN ALIVE,2023-01-28,2023-11-16,293,ADSL,TTDEATH,Y,PROTOCOL VIOLATION,0,Placebo,99
ABCD-123,ABCD-123-049,049,05,GBR,2023-01-28,2023-05-06,0,Placebo,0,Placebo,ARM0,Placebo,ARM0,Placebo,66.6,YEARS,>=65,M,NATIVE HAWAIIAN OR OTHER PACIFIC ISLANDER,HISPANIC OR LATINO,Y,Y,Y,N,Time to Disease Progression,TTPROGR,185,0,DISEASE PROGRESSION,,2023-01-28,2023-07-31,185,ADSL,TTPROGR,Y,ADVERSE EVENT,0,Placebo,99
ABCD-123,ABCD-123-049,049,05,GBR,2023-01-28,2023-05-06,0,Placebo,0,Placebo,ARM0,Placebo,ARM0,Placebo,66.6,YEARS,>=65,M,NATIVE HAWAIIAN OR OTHER PACIFIC ISLANDER,HISPANIC OR LATINO,Y,Y,Y,N,Time to Response,TTRESP,102,1,,NO RESPONSE,2023-01-28,2023-05-09,102,ADSL,TTRESP,N,,0,Placebo,99
ABCD-123,ABCD-123-050,050,03,CAN,2023-05-13,2023-05-29,0,Placebo,0,Placebo,ARM0,Placebo,ARM0,Placebo,64.1,YEARS,<65,F,ASIAN,NOT HISPANIC OR LATINO,Y,Y,Y,N,Time to Death,TTDEATH,181,0,DEATH,,2023-05-13,2023-11-09,181,ADSL,TTDEATH,Y,PROTOCOL VIOLATION,0,Placebo,17
ABCD-123,ABCD-123-050,050,03,CAN,2023-05-13,2023-05-29,0,Placebo,0,Placebo,ARM0,Placebo,ARM0,Placebo,64.1,YEARS,<65,F,ASIAN,NOT HISPANIC OR LATINO,Y,Y,Y,N,Time to Disease Progression,TTPROGR,109,0,DISEASE PROGRESSION,,2023-05-13,2023-08-29,109,ADSL,TTPROGR,Y,,0,Placebo,17
ABCD-123,ABCD-123-050,050,03,CAN,2023-05-13,2023-05-29,0,Placebo,0,Placebo,ARM0,Placebo,ARM0,Placebo,64.1,YEARS,<65,F,ASIAN,NOT HISPANIC OR LATINO,Y,Y,Y,N,Time to Response,TTRESP,213,0,RESPONSE,,2023-05-13,2023-12-11,213,ADSL,TTRESP,N,,0,Placebo,17
ABCD-123,ABCD-123-051,051,10,DEU,2023-01-16,2023-05-24,1,Low Dose,1,Low Dose,ARM1,Low Dose,ARM1,Low Dose,69.4,YEARS,>=65,F,NATIVE HAWAIIAN OR OTHER PACIFIC ISLANDER,HISPANIC OR LATINO,Y,Y,Y,N,Time to Death,TTDEATH,264,1,,LAST KNOWN ALIVE,2023-01-16,2023-10-06,264,ADSL,TTDEATH,N,,50,Low Dose,129
ABCD-123,ABCD-123-051,051,10,DEU,2023-01-16,2023-05-24,1,Low Dose,1,Low Dose,ARM1,Low Dose,ARM1,Low Dose,69.4,YEARS,>=65,F,NATIVE HAWAIIAN OR OTHER PACIFIC ISLANDER,HISPANIC OR LATINO,Y,Y,Y,N,Time to Disease Progression,TTPROGR,87,1,,NO PROGRESSION,2023-01-16,2023-04-12,87,ADSL,TTPROGR,Y,ADVERSE EVENT,50,Low Dose,129
ABCD-123,ABCD-123-051,051,10,DEU,2023-01-16,2023-05-24,1,Low Dose,1,Low Dose,ARM1,Low Dose,ARM1,Low Dose,69.4,YEARS,>=65,F,NATIVE HAWAIIAN OR OTHER PACIFIC ISLANDER,HISPANIC OR LATINO,Y,Y,Y,N,Time to Response,TTRESP,239,1,,NO RESPONSE,2023-01-16,2023-09-11,239,ADSL,TTRESP,N,,50,Low Dose,129
ABCD-123,ABCD-123-052,052,03,FRA,2023-02-16,2023-09-11,2,High Dose,2,High Dose,ARM2,High Dose,ARM2,High Dose,84.1,YEARS,>=65,F,NATIVE HAWAIIAN OR OTHER PACIFIC ISLANDER,HISPANIC OR LATINO,Y,Y,Y,Y,Time to Death,TTDEATH,36,1,,LAST KNOWN ALIVE,2023-02-16,2023-03-23,36,ADSL,TTDEATH,N,,100,High Dose,208
ABCD-123,ABCD-123-052,052,03,FRA,2023-02-16,2023-09-11,2,High Dose,2,High Dose,ARM2,High Dose,ARM2,High Dose,84.1,YEARS,>=65,F,NATIVE HAWAIIAN OR OTHER PACIFIC ISLANDER,HISPANIC OR LATINO,Y,Y,Y,Y,Time to Disease Progression,TTPROGR,236,1,,NO PROGRESSION,2023-02-16,2023-10-09,236,ADSL,TTPROGR,N,,100,High Dose,208
ABCD-123,ABCD-123-052,052,03,FRA,2023-02-16,2023-09-11,2,High Dose,2,High Dose,ARM2,High Dose,ARM2,High Dose,84.1,YEARS,>=65,F,NATIVE HAWAIIAN OR OTHER PACIFIC ISLANDER,HISPANIC OR LATINO,Y,Y,Y,Y,Time to Response,TTRESP,283,1,,NO RESPONSE,2023-02-16,2023-11-25,283,ADSL,TTRESP,N,,100,High Dose,208
ABCD-123,ABCD-123-053,053,01,USA,2023-02-10,2024-01-09,1,Low Dose,1,Low Dose,ARM1,Low Dose,ARM1,Low Dose,53.6,YEARS,<65,M,BLACK OR AFRICAN AMERICAN,NOT HISPANIC OR LATINO,Y,Y,Y,Y,Time to Death,TTDEATH,161,0,DEATH,,2023-02-10,2023-07-20,161,ADSL,TTDEATH,Y,PROTOCOL VIOLATION,50,Low Dose,334
ABCD-123,ABCD-123-053,053,01,USA,2023-02-10,2024-01-09,1,Low Dose,1,Low Dose,ARM1,Low Dose,ARM1,Low Dose,53.6,YEARS,<65,M,BLACK OR AFRICAN AMERICAN,NOT HISPANIC OR LATINO,Y,Y,Y,Y,Time to Disease Progression,TTPROGR,344,1,,NO PROGRESSION,2023-02-10,2024-01-19,344,ADSL,TTPROGR,Y,PROGRESSIVE DISEASE,50,Low Dose,334
ABCD-123,ABCD-123-053,053,01,USA,2023-02-10,2024-01-09,1,Low Dose,1,Low Dose,ARM1,Low Dose,ARM1,Low Dose,53.6,YEARS,<65,M,BLACK OR AFRICAN AMERICAN,NOT HISPANIC OR LATINO,Y,Y,Y,Y,Time to Response,TTRESP,137,0,RESPONSE,,2023-02-10,2023-06-26,137,ADSL,TTRESP,Y,PROTOCOL VIOLATION,50,Low Dose,334
ABCD-123,ABCD-123-054,054,05,USA,2023-04-26,2023-08-07,2,High Dose,2,High Dose,ARM2,High Dose,ARM2,High Dose,48.4,YEARS,<65,F,ASIAN,HISPANIC OR LATINO,Y,Y,Y,N,Time to Death,TTDEATH,72,0,DEATH,,2023-04-26,2023-07-06,72,ADSL,TTDEATH,N,,100,High Dose,104
ABCD-123,ABCD-123-054,054,05,USA,2023-04-26,2023-08-07,2,High Dose,2,High Dose,ARM2,High Dose,ARM2,High Dose,48.4,YEARS,<65,F,ASIAN,HISPANIC OR LATINO,Y,Y,Y,N,Time to Disease Progression,TTPROGR,102,0,DISEASE PROGRESSION,,2023-04-26,2023-08-05,102,ADSL,TTPROGR,N,,100,High Dose,104
ABCD-123,ABCD-123-054,054,05,USA,2023-04-26,2023-08-07,2,High Dose,2,High Dose,ARM2,High Dose,ARM2,High Dose,48.4,YEARS,<65,F,ASIAN,HISPANIC OR LATINO,Y,Y,Y,N,Time to Response,TTRESP,77,0,RESPONSE,,2023-04-26,2023-07-11,77,ADSL,TTRESP,N,,100,High Dose,104
ABCD-123,ABCD-123-055,055,01,CAN,2023-04-05,2023-08-04,1,Low Dose,1,Low Dose,ARM1,Low Dose,ARM1,Low Dose,68.1,YEARS,>=65,M,NATIVE HAWAIIAN OR OTHER PACIFIC ISLANDER,NOT HISPANIC OR LATINO,Y,Y,Y,Y,Time to Death,TTDEATH,167,1,,LAST KNOWN ALIVE,2023-04-05,2023-09-18,167,ADSL,TTDEATH,N,,50,Low Dose,122
ABCD-123,ABCD-123-055,055,01,CAN,2023-04-05,2023-08-04,1,Low Dose,1,Low Dose,ARM1,Low Dose,ARM1,Low Dose,68.1,YEARS,>=65,M,NATIVE HAWAIIAN OR OTHER PACIFIC ISLANDER,NOT HISPANIC OR LATINO,Y,Y,Y,Y,Time to Disease Progression,TTPROGR,155,1,,NO PROGRESSION,2023-04-05,2023-09-06,155,ADSL,TTPROGR,N,,50,Low Dose,122
ABCD-123,ABCD-123-055,055,01,CAN,2023-04-05,2023-08-04,1,Low Dose,1,Low Dose,ARM1,Low Dose,ARM1,Low Dose,68.1,YEARS,>=65,M,NATIVE HAWAIIAN OR OTHER PACIFIC ISLANDER,NOT HISPANIC OR LATINO,Y,Y,Y,Y,Time to Response,TTRESP,29,0,RESPONSE,,2023-04-05,2023-05-03,29,ADSL,TTRESP,Y,PROGRESSIVE DISEASE,50,Low Dose,122
ABCD-123,ABCD-123-056,056,03,FRA,2023-02-27,2023-07-25,2,High Dose,2,High Dose,ARM2,High Dose,ARM2,High Dose,82.7,YEARS,>=65,M,NATIVE HAWAIIAN OR OTHER PACIFIC ISLANDER,NOT HISPANIC OR LATINO,Y,Y,Y,Y,Time to Death,TTDEATH,265,1,,LAST KNOWN ALIVE,2023-02-27,2023-11-18,265,ADSL,TTDEATH,N,,100,High Dose,149
ABCD-123,ABCD-123-056,056,03,FRA,2023-02-27,2023-07-25,2,High Dose,2,High Dose,ARM2,High Dose,ARM2,High Dose,82.7,YEARS,>=65,M,NATIVE HAWAIIAN OR OTHER PACIFIC ISLANDER,NOT HISPANIC OR LATINO,Y,Y,Y,Y,Time to Disease Progression,TTPROGR,156,0,DISEASE PROGRESSION,,2023-02-27,2023-08-01,156,ADSL,TTPROGR,Y,WITHDRAWAL BY SUBJECT,100,High Dose,149
ABCD-123,ABCD-123-056,056,03,FRA,2023-02-27,2023-07-25,2,High Dose,2,High Dose,ARM2,High Dose,ARM2,High Dose,82.7,YEARS,>=65,M,NATIVE HAWAIIAN OR OTHER PACIFIC ISLANDER,NOT HISPANIC OR LATINO,Y,Y,Y,Y,Time to Response,TTRESP,209,1,,NO RESPONSE,2023-02-27,2023-09-23,209,ADSL,TTRESP,N,,100,High Dose,149
ABCD-123,ABCD-123-057,057,03,CAN,2023-02-01,2023-03-16,0,Placebo,0,Placebo,ARM0,Placebo,ARM0,Placebo,40,YEARS,<65,F,BLACK OR AFRICAN AMERICAN,HISPANIC OR LATINO,Y,Y,Y,Y,Time to Death,TTDEATH,155,0,DEATH,,2023-02-01,2023-07-05,155,ADSL,TTDEATH,N,,0,Placebo,44
ABCD-123,ABCD-123-057,057,03,CAN,2023-02-01,2023-03-16,0,Placebo,0,Placebo,ARM0,Placebo,ARM0,Placebo,40,YEARS,<65,F,BLACK OR AFRICAN AMERICAN,HISPANIC OR LATINO,Y,Y,Y,Y,Time to Disease Progression,TTPROGR,278,0,DISEASE PROGRESSION,,2023-02-01,2023-11-05,278,ADSL,TTPROGR,N,,0,Placebo,44
ABCD-123,ABCD-123-057,057,03,CAN,2023-02-01,2023-03-16,0,Placebo,0,Placebo,ARM0,Placebo,ARM0,Placebo,40,YEARS,<65,F,BLACK OR AFRICAN AMERICAN,HISPANIC OR LATINO,Y,Y,Y,Y,Time to Response,TTRESP,38,1,,NO RESPONSE,2023-02-01,2023-03-10,38,ADSL,TTRESP,N,,0,Placebo,44
ABCD-123,ABCD-123-058,058,02,GBR,2023-05-12,2023-09-04,0,Placebo,0,Placebo,ARM0,Placebo,ARM0,Placebo,82,YEARS,>=65,F,AMERICAN INDIAN OR ALASKA NATIVE,NOT HISPANIC OR LATINO,Y,Y,Y,Y,Time to Death,TTDEATH,130,1,,LAST KNOWN ALIVE,2023-05-12,2023-09-18,130,ADSL,TTDEATH,N,,0,Placebo,116
ABCD-123,ABCD-123-058,058,02,GBR,2023-05-12,2023-09-04,0,Placebo,0,Placebo,ARM0,Placebo,ARM0,Placebo,82,YEARS,>=65,F,AMERICAN INDIAN OR ALASKA NATIVE,NOT HISPANIC OR LATINO,Y,Y,Y,Y,Time to Disease Progression,TTPROGR,229,1,,NO PROGRESSION,2023-05-12,2023-12-26,229,ADSL,TTPROGR,Y,ADVERSE EVENT,0,Placebo,116
ABCD-123,ABCD-123-058,058,02,GBR,2023-05-12,2023-09-04,0,Placebo,0,Placebo,ARM0,Placebo,ARM0,Placebo,82,YEARS,>=65,F,AMERICAN INDIAN OR ALASKA NATIVE,NOT HISPANIC OR LATINO,Y,Y,Y,Y,Time to Response,TTRESP,262,1,,NO RESPONSE,2023-05-12,2024-01-28,262,ADSL,TTRESP,N,,0,Placebo,116
ABCD-123,ABCD-123-059,059,05,GBR,2023-02-25,2023-09-05,2,High Dose,2,High Dose,ARM2,High Dose,ARM2,High Dose,40.4,YEARS,<65,M,BLACK OR AFRICAN AMERICAN,NOT HISPANIC OR LATINO,Y,Y,Y,N,Time to Death,TTDEATH,139,1,,LAST KNOWN ALIVE,2023-02-25,2023-07-13,139,ADSL,TTDEATH,N,,100,High Dose,193
ABCD-123,ABCD-123-059,059,05,GBR,2023-02-25,2023-09-05,2,High Dose,2,High Dose,ARM2,High Dose,ARM2,High Dose,40.4,YEARS,<65,M,BLACK OR AFRICAN AMERICAN,NOT HISPANIC OR LATINO,Y,Y,Y,N,Time to Disease Progression,TTPROGR,31,1,,NO PROGRESSION,2023-02-25,2023-03-27,31,ADSL,TTPROGR,N,,100,High Dose,193
ABCD-123,ABCD-123-059,059,05,GBR,2023-02-25,2023-09-05,2,High Dose,2,High Dose,ARM2,High Dose,ARM2,High Dose,40.4,YEARS,<65,M,BLACK OR AFRICAN AMERICAN,NOT HISPANIC OR LATINO,Y,Y,Y,N,Time to Response,TTRESP,138,1,,NO RESPONSE,2023-02-25,2023-07-12,138,ADSL,TTRESP,N,,100,High Dose,193
ABCD-123,ABCD-123-060,060,08,DEU,2023-04-26,2024-04-08,1,Low Dose,1,Low Dose,ARM1,Low Dose,ARM1,Low Dose,44.5,YEARS,<65,F,NATIVE HAWAIIAN OR OTHER PACIFIC ISLANDER,NOT HISPANIC OR LATINO,Y,Y,Y,Y,Time to Death,TTDEATH,139,1,,LAST KNOWN ALIVE,2023-04-26,2023-09-11,139,ADSL,TTDEATH,Y,PROTOCOL VIOLATION,50,Low Dose,349
ABCD-123,ABCD-123-060,060,08,DEU,2023-04-26,2024-04-08,1,Low Dose,1,Low Dose,ARM1,Low Dose,ARM1,Low Dose,44.5,YEARS,<65,F,NATIVE HAWAIIAN OR OTHER PACIFIC ISLANDER,NOT HISPANIC OR LATINO,Y,Y,Y,Y,Time to Disease Progression,TTPROGR,21,1,,NO PROGRESSION,2023-04-26,2023-05-16,21,ADSL,TTPROGR,Y,PROTOCOL VIOLATION,50,Low Dose,349
ABCD-123,ABCD-123-060,060,08,DEU,2023-04-26,2024-04-08,1,Low Dose,1,Low Dose,ARM1,Low Dose,ARM1,Low Dose,44.5,YEARS,<65,F,NATIVE HAWAIIAN OR OTHER PACIFIC ISLANDER,NOT HISPANIC OR LATINO,Y,Y,Y,Y,Time to Response,TTRESP,34,0,RESPONSE,,2023-04-26,2023-05-29,34,ADSL,TTRESP,N,,50,Low Dose,349
ABCD-123,ABCD-123-061,061,02,CAN,2023-05-20,2023-05-26,0,Placebo,0,Placebo,ARM0,Placebo,ARM0,Placebo,74,YEARS,>=65,M,AMERICAN INDIAN OR ALASKA NATIVE,NOT HISPANIC OR LATINO,Y,Y,N,N,Time to Death,TTDEATH,194,0,DEATH,,2023-05-20,2023-11-29,194,ADSL,TTDEATH,N,,0,Placebo,7
ABCD-123,ABCD-123-061,061,02,CAN,2023-05-20,2023-05-26,0,Placebo,0,Placebo,ARM0,Placebo,ARM0,Placebo,74,YEARS,>=65,M,AMERICAN INDIAN OR ALASKA NATIVE,NOT HISPANIC OR LATINO,Y,Y,N,N,Time to Disease Progression,TTPROGR,203,1,,NO PROGRESSION,2023-05-20,2023-12-08,203,ADSL,TTPROGR,N,,0,Placebo,7
ABCD-123,ABCD-123-061,061,02,CAN,2023-05-20,2023-05-26,0,Placebo,0,Placebo,ARM0,Placebo,ARM0,Placebo,74,YEARS,>=65,M,AMERICAN INDIAN OR ALASKA NATIVE,NOT HISPANIC OR LATINO,Y,Y,N,N,Time to Response,TTRESP,285,1,,NO RESPONSE,2023-05-20,2024-02-28,285,ADSL,TTRESP,N,,0,Placebo,7
ABCD-123,ABCD-123-062,062,10,GBR,2023-05-10,2023-12-29,0,Placebo,0,Placebo,ARM0,Placebo,ARM0,Placebo,44.7,YEARS,<65,M,ASIAN,NOT HISPANIC OR LATINO,Y,Y,Y,Y,Time to Death,TTDEATH,220,0,DEATH,,2023-05-10,2023-12-15,220,ADSL,TTDEATH,Y,PROGRESSIVE DISEASE,0,Placebo,234
ABCD-123,ABCD-123-062,062,10,GBR,2023-05-10,2023-12-29,0,Placebo,0,Placebo,ARM0,Placebo,ARM0,Placebo,44.7,YEARS,<65,M,ASIAN,NOT HISPANIC OR LATINO,Y,Y,Y,Y,Time to Disease Progression,TTPROGR,212,1,,NO PROGRESSION,2023-05-10,2023-12-07,212,ADSL,TTPROGR,Y,ADVERSE EVENT,0,Placebo,234
ABCD-123,ABCD-123-062,062,10,GBR,2023-05-10,2023-12-29,0,Placebo,0,Placebo,ARM0,Placebo,ARM0,Placebo,44.7,YEARS,<65,M,ASIAN,NOT HISPANIC OR LATINO,Y,Y,Y,Y,Time to Response,TTRESP,198,0,RESPONSE,,2023-05-10,2023-11-23,198,ADSL,TTRESP,Y,PROTOCOL VIOLATION,0,Placebo,234
ABCD-123,ABCD-123-063,063,08,FRA,2023-04-07,2023-07-03,0,Placebo,0,Placebo,ARM0,Placebo,ARM0,Placebo,52.3,YEARS,<65,F,ASIAN,NOT HISPANIC OR LATINO,Y,Y,Y,Y,Time to Death,TTDEATH,55,1,,LAST KNOWN ALIVE,2023-04-07,2023-05-31,55,ADSL,TTDEATH,N,,0,Placebo,88
ABCD-123,ABCD-123-063,063,08,FRA,2023-04-07,2023-07-03,0,Placebo,0,Placebo,ARM0,Placebo,ARM0,Placebo,52.3,YEARS,<65,F,ASIAN,NOT HISPANIC OR LATINO,Y,Y,Y,Y,Time to Disease Progression,TTPROGR,286,1,,NO PROGRESSION,2023-04-07,2024-01-17,286,ADSL,TTPROGR,N,,0,Placebo,88
ABCD-123,ABCD-123-063,063,08,FRA,2023-04-07,2023-07-03,0,Placebo,0,Placebo,ARM0,Placebo,ARM0,Placebo,52.3,YEARS,<65,F,ASIAN,NOT HISPANIC OR LATINO,Y,Y,Y,Y,Time to Response,TTRESP,55,0,RESPONSE,,2023-04-07,2023-05-31,55,ADSL,TTRESP,N,,0,Placebo,88
ABCD-123,ABCD-123-064,064,02,USA,2023-02-11,2023-09-02,1,Low Dose,1,Low Dose,ARM1,Low Dose,ARM1,Low Dose,76.9,YEARS,>=65,M,NATIVE HAWAIIAN OR OTHER PACIFIC ISLANDER,NOT HISPANIC OR LATINO,Y,Y,Y,Y,Time to Death,TTDEATH,195,1,,LAST KNOWN ALIVE,2023-02-11,2023-08-24,195,ADSL,TTDEATH,N,,50,Low Dose,204
ABCD-123,ABCD-123-064,064,02,USA,2023-02-11,2023-09-02,1,Low Dose,1,Low Dose,ARM1,Low Dose,ARM1,Low Dose,76.9,YEARS,>=65,M,NATIVE HAWAIIAN OR OTHER PACIFIC ISLANDER,NOT HISPANIC OR LATINO,Y,Y,Y,Y,Time to Disease Progression,TTPROGR,146,0,DISEASE PROGRESSION,,2023-02-11,2023-07-06,146,ADSL,TTPROGR,Y,WITHDRAWAL BY SUBJECT,50,Low Dose,204
ABCD-123,ABCD-123-064,064,02,USA,2023-02-11,2023-09-02,1,Low Dose,1,Low Dose,ARM1,Low Dose,ARM1,Low Dose,76.9,YEARS,>=65,M,NATIVE HAWAIIAN OR OTHER PACIFIC ISLANDER,NOT HISPANIC OR LATINO,Y,Y,Y,Y,Time to Response,TTRESP,56,1,,NO RESPONSE,2023-02-11,2023-04-07,56,ADSL,TTRESP,Y,WITHDRAWAL BY SUBJECT,50,Low Dose,204
ABCD-123,ABCD-123-065,065,09,DEU,2023-03-31,2023-07-21,1,Low Dose,1,Low Dose,ARM1,Low Dose,ARM1,Low Dose,64,YEARS,<65,F,NATIVE HAWAIIAN OR OTHER PACIFIC ISLANDER,HISPANIC OR LATINO,Y,Y,Y,N,Time to Death,TTDEATH,271,1,,LAST KNOWN ALIVE,2023-03-31,2023-12-26,271,ADSL,TTDEATH,Y,ADVERSE EVENT,50,Low Dose,113
ABCD-123,ABCD-123-065,065,09,DEU,2023-03-31,2023-07-21,1,Low Dose,1,Low Dose,ARM1,Low Dose,ARM1,Low Dose,64,YEARS,<65,F,NATIVE HAWAIIAN OR OTHER PACIFIC ISLANDER,HISPANIC OR LATINO,Y,Y,Y,N,Time to Disease Progression,TTPROGR,255,0,DISEASE PROGRESSION,,2023-03-31,2023-12-10,255,ADSL,TTPROGR,N,,50,Low Dose,113
ABCD-123,ABCD-123-065,065,09,DEU,2023-03-31,2023-07-21,1,Low Dose,1,Low Dose,ARM1,Low Dose,ARM1,Low Dose,64,YEARS,<65,F,NATIVE HAWAIIAN OR OTHER PACIFIC ISLANDER,HISPANIC OR LATINO,Y,Y,Y,N,Time to Response,TTRESP,351,1,,NO RESPONSE,2023-03-31,2024-03-15,351,ADSL,TTRESP,N,,50,Low Dose,113
ABCD-123,ABCD-123-066,066,04,USA,2023-03-16,2023-10-20,2,High Dose,2,High Dose,ARM2,High Dose,ARM2,High Dose,47.7,YEARS,<65,F,ASIAN,HISPANIC OR LATINO,Y,Y,Y,Y,Time to Death,TTDEATH,323,1,,LAST KNOWN ALIVE,2023-03-16,2024-02-01,323,ADSL,TTDEATH,N,,100,High Dose,219
ABCD-123,ABCD-123-066,066,04,USA,2023-03-16,2023-10-20,2,High Dose,2,High Dose,ARM2,High Dose,ARM2,High Dose,47.7,YEARS,<65,F,ASIAN,HISPANIC OR LATINO,Y,Y,Y,Y,Time to Disease Progression,TTPROGR,82,0,DISEASE PROGRESSION,,2023-03-16,2023-06-05,82,ADSL,TTPROGR,N,,100,High Dose,219
ABCD-123,ABCD-123-066,066,04,USA,2023-03-16,2023-10-20,2,High Dose,2,High Dose,ARM2,High Dose,ARM2,High Dose,47.7,YEARS,<65,F,ASIAN,HISPANIC OR LATINO,Y,Y,Y,Y,Time to Response,TTRESP,203,1,,NO RESPONSE,2023-03-16,2023-10-04,203,ADSL,TTRESP,Y,PROGRESSIVE DISEASE,100,High Dose,219
ABCD-123,ABCD-123-067,067,07,USA,2023-05-25,2023-07-03,2,High Dose,2,High Dose,ARM2,High Dose,ARM2,High Dose,43.2,YEARS,<65,M,AMERICAN INDIAN OR ALASKA NATIVE,NOT HISPANIC OR LATINO,Y,Y,Y,Y,Time to Death,TTDEATH,303,1,,LAST KNOWN ALIVE,2023-05-25,2024-03-22,303,ADSL,TTDEATH,N,,100,High Dose,40
ABCD-123,ABCD-123-067,067,07,USA,2023-05-25,2023-07-03,2,High Dose,2,High Dose,ARM2,High Dose,ARM2,High Dose,43.2,YEARS,<65,M,AMERICAN INDIAN OR ALASKA NATIVE,NOT HISPANIC OR LATINO,Y,Y,Y,Y,Time to Disease Progression,TTPROGR,162,0,DISEASE PROGRESSION,,2023-05-25,2023-11-02,162,ADSL,TTPROGR,N,,100,High Dose,40
ABCD-123,ABCD-123-067,067,07,USA,2023-05-25,2023-07-03,2,High Dose,2,High Dose,ARM2,High Dose,ARM2,High Dose,43.2,YEARS,<65,M,AMERICAN INDIAN OR ALASKA NATIVE,NOT HISPANIC OR LATINO,Y,Y,Y,Y,Time to Response,TTRESP,168,1,,NO RESPONSE,2023-05-25,2023-11-08,168,ADSL,TTRESP,Y,PROTOCOL VIOLATION,100,High Dose,40
ABCD-123,ABCD-123-068,068,03,CAN,2023-01-24,2023-04-24,2,High Dose,2,High Dose,ARM2,High Dose,ARM2,High Dose,84.8,YEARS,>=65,F,ASIAN,HISPANIC OR LATINO,N,Y,Y,Y,Time to Death,TTDEATH,132,0,DEATH,,2023-01-24,2023-06-04,132,ADSL,TTDEATH,N,,100,High Dose,91
ABCD-123,ABCD-123-068,068,03,CAN,2023-01-24,2023-04-24,2,High Dose,2,High Dose,ARM2,High Dose,ARM2,High Dose,84.8,YEARS,>=65,F,ASIAN,HISPANIC OR LATINO,N,Y,Y,Y,Time to Disease Progression,TTPROGR,56,1,,NO PROGRESSION,2023-01-24,2023-03-20,56,ADSL,TTPROGR,N,,100,High Dose,91
ABCD-123,ABCD-123-068,068,03,CAN,2023-01-24,2023-04-24,2,High Dose,2,High Dose,ARM2,High Dose,ARM2,High Dose,84.8,YEARS,>=65,F,ASIAN,HISPANIC OR LATINO,N,Y,Y,Y,Time to Response,TTRESP,41,1,,NO RESPONSE,2023-01-24,2023-03-05,41,ADSL,TTRESP,N,,100,High Dose,91
ABCD-123,ABCD-123-069,069,09,CAN,2023-04-02,2023-11-13,1,Low Dose,1,Low Dose,ARM1,Low Dose,ARM1,Low Dose,51.8,YEARS,<65,M,WHITE,NOT HISPANIC OR LATINO,Y,Y,Y,N,Time to Death,TTDEATH,161,1,,LAST KNOWN ALIVE,2023-04-02,2023-09-09,161,ADSL,TTDEATH,N,,50,Low Dose,226
ABCD-123,ABCD-123-069,069,09,CAN,2023-04-02,2023-11-13,1,Low Dose,1,Low Dose,ARM1,Low Dose,ARM1,Low Dose,51.8,YEARS,<65,M,WHITE,NOT HISPANIC OR LATINO,Y,Y,Y,N,Time to Disease Progression,TTPROGR,73,0,DISEASE PROGRESSION,,2023-04-02,2023-06-13,73,ADSL,TTPROGR,N,,50,Low Dose,226
ABCD-123,ABCD-123-069,069,09,CAN,2023-04-02,2023-11-13,1,Low Dose,1,Low Dose,ARM1,Low Dose,ARM1,Low Dose,51.8,YEARS,<65,M,WHITE,NOT HISPANIC OR LATINO,Y,Y,Y,N,Time to Response,TTRESP,79,0,RESPONSE,,2023-04-02,2023-06-19,79,ADSL,TTRESP,N,,50,Low Dose,226
ABCD-123,ABCD-123-070,070,06,USA,2023-06-27,2024-02-13,1,Low Dose,1,Low Dose,ARM1,Low Dose,ARM1,Low Dose,67.8,YEARS,>=65,F,WHITE,NOT HISPANIC OR LATINO,Y,Y,Y,Y,Time to Death,TTDEATH,344,0,DEATH,,2023-06-27,2024-06-04,344,ADSL,TTDEATH,Y,,50,Low Dose,232
ABCD-123,ABCD-123-070,070,06,USA,2023-06-27,2024-02-13,1,Low Dose,1,Low Dose,ARM1,Low Dose,ARM1,Low Dose,67.8,YEARS,>=65,F,WHITE,NOT HISPANIC OR LATINO,Y,Y,Y,Y,Time to Disease Progression,TTPROGR,236,0,DISEASE PROGRESSION,,2023-06-27,2024-02-17,236,ADSL,TTPROGR,Y,PROGRESSIVE DISEASE,50,Low Dose,232
ABCD-123,ABCD-123-070,070,06,USA,2023-06-27,2024-02-13,1,Low Dose,1,Low Dose,ARM1,Low Dose,ARM1,Low Dose,67.8,YEARS,>=65,F,WHITE,NOT HISPANIC OR LATINO,Y,Y,Y,Y,Time to Response,TTRESP,267,0,RESPONSE,,2023-06-27,2024-03-19,267,ADSL,TTRESP,N,,50,Low Dose,232
ABCD-123,ABCD-123-071,071,10,GBR,2023-01-16,2023-10-25,1,Low Dose,1,Low Dose,ARM1,Low Dose,ARM1,Low Dose,49.7,YEARS,<65,M,BLACK OR AFRICAN AMERICAN,HISPANIC OR LATINO,Y,Y,Y,N,Time to Death,TTDEATH,122,0,DEATH,,2023-01-16,2023-05-17,122,ADSL,TTDEATH,N,,50,Low Dose,283
ABCD-123,ABCD-123-071,071,10,GBR,2023-01-16,2023-10-25,1,Low Dose,1,Low Dose,ARM1,Low Dose,ARM1,Low Dose,49.7,YEARS,<65,M,BLACK OR AFRICAN AMERICAN,HISPANIC OR LATINO,Y,Y,Y,N,Time to Disease Progression,TTPROGR,229,1,,NO PROGRESSION,2023-01-16,2023-09-01,229,ADSL,TTPROGR,Y,,50,Low Dose,283
ABCD-123,ABCD-123-071,071,10,GBR,2023-01-16,2023-10-25,1,Low Dose,1,Low Dose,ARM1,Low Dose,ARM1,Low Dose,49.7,YEARS,<65,M,BLACK OR AFRICAN AMERICAN,HISPANIC OR LATINO,Y,Y,Y,N,Time to Response,TTRESP,266,1,,NO RESPONSE,2023-01-16,2023-10-08,266,ADSL,TTRESP,N,,50,Low Dose,283
ABCD-123,ABCD-123-072,072,05,DEU,2023-04-16,2023-05-23,1,Low Dose,1,Low Dose,ARM1,Low Dose,ARM1,Low Dose,36.4,YEARS,<65,M,WHITE,HISPANIC OR LATINO,Y,Y,Y,N,Time to Death,TTDEATH,338,0,DEATH,,2023-04-16,2024-03-18,338,ADSL,TTDEATH,Y,WITHDRAWAL BY SUBJECT,50,Low Dose,38
ABCD-123,ABCD-123-072,072,05,DEU,2023-04-16,2023-05-23,1,Low Dose,1,Low Dose,ARM1,Low Dose,ARM1,Low Dose,36.4,YEARS,<65,M,WHITE,HISPANIC OR LATINO,Y,Y,Y,N,Time to Disease Progression,TTPROGR,259,0,DISEASE PROGRESSION,,2023-04-16,2023-12-30,259,ADSL,TTPROGR,Y,ADVERSE EVENT,50,Low Dose,38
ABCD-123,ABCD-123-072,072,05,DEU,2023-04-16,2023-05-23,1,Low Dose,1,Low Dose,ARM1,Low Dose,ARM1,Low Dose,36.4,YEARS,<65,M,WHITE,HISPANIC OR LATINO,Y,Y,Y,N,Time to Response,TTRESP,71,0,RESPONSE,,2023-04-16,2023-06-25,71,ADSL,TTRESP,Y,PROGRESSIVE DISEASE,50,Low Dose,38
ABCD-123,ABCD-123-073,073,01,USA,2023-07-04,2024-01-18,2,High Dose,2,High Dose,ARM2,High Dose,ARM2,High Dose,82.8,YEARS,>=65,M,NATIVE HAWAIIAN OR OTHER PACIFIC ISLANDER,NOT HISPANIC OR LATINO,Y,Y,Y,N,Time to Death,TTDEATH,298,1,,LAST KNOWN ALIVE,2023-07-04,2024-04-26,298,ADSL,TTDEATH,Y,PROGRESSIVE DISEASE,100,High Dose,199
ABCD-123,ABCD-123-073,073,01,USA,2023-07-04,2024-01-18,2,High Dose,2,High Dose,ARM2,High Dose,ARM2,High Dose,82.8,YEARS,>=65,M,NATIVE HAWAIIAN OR OTHER PACIFIC ISLANDER,NOT HISPANIC OR LATINO,Y,Y,Y,N,Time to Disease Progression,TTPROGR,15,0,DISEASE PROGRESSION,,2023-07-04,2023-07-18,15,ADSL,TTPROGR,Y,,100,High Dose,199
ABCD-123,ABCD-123-073,073,01,USA,2023-07-04,2024-01-18,2,High Dose,2,High Dose,ARM2,High Dose,ARM2,High Dose,82.8,YEARS,>=65,M,NATIVE HAWAIIAN OR OTHER PACIFIC ISLANDER,NOT HISPANIC OR LATINO,Y,Y,Y,N,Time to Response,TTRESP,319,0,RESPONSE,,2023-07-04,2024-05-17,319,ADSL,TTRESP,Y,ADVERSE EVENT,100,High Dose,199
ABCD-123,ABCD-123-074,074,08,USA,2023-02-02,2023-08-09,2,High Dose,2,High Dose,ARM2,High Dose,ARM2,High Dose,73.8,YEARS,>=65,M,ASIAN,HISPANIC OR LATINO,Y,Y,Y,Y,Time to Death,TTDEATH,139,1,,LAST KNOWN ALIVE,2023-02-02,2023-06-20,139,ADSL,TTDEATH,N,,100,High Dose,189
ABCD-123,ABCD-123-074,074,08,USA,2023-02-02,2023-08-09,2,High Dose,2,High Dose,ARM2,High Dose,ARM2,High Dose,73.8,YEARS,>=65,M,ASIAN,HISPANIC OR LATINO,Y,Y,Y,Y,Time to Disease Progression,TTPROGR,136,0,DISEASE PROGRESSION,,2023-02-02,2023-06-17,136,ADSL,TTPROGR,Y,ADVERSE EVENT,100,High Dose,189
ABCD-123,ABCD-123-074,074,08,USA,2023-02-02,2023-08-09,2,High Dose,2,High Dose,ARM2,High Dose,ARM2,High Dose,73.8,YEARS,>=65,M,ASIAN,HISPANIC OR LATINO,Y,Y,Y,Y,Time to Response,TTRESP,296,0,RESPONSE,,2023-02-02,2023-11-24,296,ADSL,TTRESP,N,,100,High Dose,189
ABCD-123,ABCD-123-075,075,05,FRA,2023-03-11,2023-03-30,2,High Dose,2,High Dose,ARM2,High Dose,ARM2,High Dose,71.7,YEARS,>=65,M,AMERICAN INDIAN OR ALASKA NATIVE,HISPANIC OR LATINO,N,Y,Y,N,Time to Death,TTDEATH,185,1,,LAST KNOWN ALIVE,2023-03-11,2023-09-11,185,ADSL,TTDEATH,N,,100,High Dose,20
ABCD-123,ABCD-123-075,075,05,FRA,2023-03-11,2023-03-30,2,High Dose,2,High Dose,ARM2,High Dose,ARM2,High Dose,71.7,YEARS,>=65,M,AMERICAN INDIAN OR ALASKA NATIVE,HISPANIC OR LATINO,N,Y,Y,N,Time to Disease Progression,TTPROGR,80,0,DISEASE PROGRESSION,,2023-03-11,2023-05-29,80,ADSL,TTPROGR,N,,100,High Dose,20
ABCD-123,ABCD-123-075,075,05,FRA,2023-03-11,2023-03-30,2,High Dose,2,High Dose,ARM2,High Dose,ARM2,High Dose,71.7,YEARS,>=65,M,AMERICAN INDIAN OR ALASKA NATIVE,HISPANIC OR LATINO,N,Y,Y,N,Time to Response,TTRESP,32,0,RESPONSE,,2023-03-11,2023-04-11,32,ADSL,TTRESP,N,,100,High Dose,20
ABCD-123,ABCD-123-076,076,07,DEU,2023-07-02,2024-01-11,0,Placebo,0,Placebo,ARM0,Placebo,ARM0,Placebo,41.2,YEARS,<65,M,BLACK OR AFRICAN AMERICAN,NOT HISPANIC OR LATINO,Y,Y,Y,Y,Time to Death,TTDEATH,229,1,,LAST KNOWN ALIVE,2023-07-02,2024-02-15,229,ADSL,TTDEATH,N,,0,Placebo,194
ABCD-123,ABCD-123-076,076,07,DEU,2023-07-02,2024-01-11,0,Placebo,0,Placebo,ARM0,Placebo,ARM0,Placebo,41.2,YEARS,<65,M,BLACK OR AFRICAN AMERICAN,NOT HISPANIC OR LATINO,Y,Y,Y,Y,Time to Disease Progression,TTPROGR,73,1,,NO PROGRESSION,2023-07-02,2023-09-12,73,ADSL,TTPROGR,Y,,0,Placebo,194
ABCD-123,ABCD-123-076,076,07,DEU,2023-07-02,2024-01-11,0,Placebo,0,Placebo,ARM0,Placebo,ARM0,Placebo,41.2,YEARS,<65,M,BLACK OR AFRICAN AMERICAN,NOT HISPANIC OR LATINO,Y,Y,Y,Y,Time to Response,TTRESP,57,1,,NO RESPONSE,2023-07-02,2023-08-27,57,ADSL,TTRESP,N,,0,Placebo,194
ABCD-123,ABCD-123-077,077,06,DEU,2023-01-23,2024-01-11,2,High Dose,2,High Dose,ARM2,High Dose,ARM2,High Dose,55.9,YEARS,<65,M,ASIAN,NOT HISPANIC OR LATINO,Y,Y,Y,N,Time to Death,TTDEATH,185,1,,LAST KNOWN ALIVE,2023-01-23,2023-07-26,185,ADSL,TTDEATH,N,,100,High Dose,354
ABCD-123,ABCD-123-077,077,06,DEU,2023-01-23,2024-01-11,2,High Dose,2,High Dose,ARM2,High Dose,ARM2,High Dose,55.9,YEARS,<65,M,ASIAN,NOT HISPANIC OR LATINO,Y,Y,Y,N,Time to Disease Progression,TTPROGR,262,0,DISEASE PROGRESSION,,2023-01-23,2023-10-11,262,ADSL,TTPROGR,Y,PROTOCOL VIOLATION,100,High Dose,354
ABCD-123,ABCD-123-077,077,06,DEU,2023-01-23,2024-01-11,2,High Dose,2,High Dose,ARM2,High Dose,ARM2,High Dose,55.9,YEARS,<65,M,ASIAN,NOT HISPANIC OR LATINO,Y,Y,Y,N,Time to Response,TTRESP,304,1,,NO RESPONSE,2023-01-23,2023-11-22,304,ADSL,TTRESP,N,,100,High Dose,354
ABCD-123,ABCD-123-078,078,07,DEU,2023-05-31,2023-10-15,0,Placebo,0,Placebo,ARM0,Placebo,ARM0,Placebo,65.2,YEARS,>=65,F,AMERICAN INDIAN OR ALASKA NATIVE,HISPANIC OR LATINO,Y,Y,Y,Y,Time to Death,TTDEATH,75,1,,LAST KNOWN ALIVE,2023-05-31,2023-08-13,75,ADSL,TTDEATH,N,,0,Placebo,138
ABCD-123,ABCD-123-078,078,07,DEU,2023-05-31,2023-10-15,0,Placebo,0,Placebo,ARM0,Placebo,ARM0,Placebo,65.2,YEARS,>=65,F,AMERICAN INDIAN OR ALASKA NATIVE,HISPANIC OR LATINO,Y,Y,Y,Y,Time to Disease Progression,TTPROGR,268,1,,NO PROGRESSION,2023-05-31,2024-02-22,268,ADSL,TTPROGR,N,,0,Placebo,138
ABCD-123,ABCD-123-078,078,07,DEU,2023-05-31,2023-10-15,0,Placebo,0,Placebo,ARM0,Placebo,ARM0,Placebo,65.2,YEARS,>=65,F,AMERICAN INDIAN OR ALASKA NATIVE,HISPANIC OR LATINO,Y,Y,Y,Y,Time to Response,TTRESP,313,1,,NO RESPONSE,2023-05-31,2024-04-07,313,ADSL,TTRESP,N,,0,Placebo,138
ABCD-123,ABCD-123-079,079,09,DEU,2023-06-03,2024-03-25,2,High Dose,2,High Dose,ARM2,High Dose,ARM2,High Dose,36.4,YEARS,<65,F,AMERICAN INDIAN OR ALASKA NATIVE,NOT HISPANIC OR LATINO,Y,Y,Y,Y,Time to Death,TTDEATH,233,1,,LAST KNOWN ALIVE,2023-06-03,2024-01-21,233,ADSL,TTDEATH,N,,100,High Dose,297
ABCD-123,ABCD-123-079,079,09,DEU,2023-06-03,2024-03-25,2,High Dose,2,High Dose,ARM2,High Dose,ARM2,High Dose,36.4,YEARS,<65,F,AMERICAN INDIAN OR ALASKA NATIVE,NOT HISPANIC OR LATINO,Y,Y,Y,Y,Time to Disease Progression,TTPROGR,141,0,DISEASE PROGRESSION,,2023-06-03,2023-10-21,141,ADSL,TTPROGR,N,,100,High Dose,297
ABCD-123,ABCD-123-079,079,09,DEU,2023-06-03,2024-03-25,2,High Dose,2,High Dose,ARM2,High Dose,ARM2,High Dose,36.4,YEARS,<65,F,AMERICAN INDIAN OR ALASKA NATIVE,NOT HISPANIC OR LATINO,Y,Y,Y,Y,Time to Response,TTRESP,32,0,RESPONSE,,2023-06-03,2023-07-04,32,ADSL,TTRESP,N,,100,High Dose,297
ABCD-123,ABCD-123-080,080,05,USA,2023-05-21,2024-04-19,2,High Dose,2,High Dose,ARM2,High Dose,ARM2,High Dose,84.8,YEARS,>=65,M,BLACK OR AFRICAN AMERICAN,HISPANIC OR LATINO,Y,Y,N,Y,Time to Death,TTDEATH,117,1,,LAST KNOWN ALIVE,2023-05-21,2023-09-14,117,ADSL,TTDEATH,N,,100,High Dose,335
ABCD-123,ABCD-123-080,080,05,USA,2023-05-21,2024-04-19,2,High Dose,2,High Dose,ARM2,High Dose,ARM2,High Dose,84.8,YEARS,>=65,M,BLACK OR AFRICAN AMERICAN,HISPANIC OR LATINO,Y,Y,N,Y,Time to Disease Progression,TTPROGR,364,0,DISEASE PROGRESSION,,2023-05-21,2024-05-18,364,ADSL,TTPROGR,N,,100,High Dose,335
ABCD-123,ABCD-123-080,080,05,USA,2023-05-21,2024-04-19,2,High Dose,2,High Dose,ARM2,High Dose,ARM2,High Dose,84.8,YEARS,>=65,M,BLACK OR AFRICAN AMERICAN,HISPANIC OR LATINO,Y,Y,N,Y,Time to Response,TTRESP,344,1,,NO RESPONSE,2023-05-21,2024-04-28,344,ADSL,TTRESP,N,,100,High Dose,335
